AX,AY,AZ,TEMP,GX,GY,GZ,MX,MY,MZ
-27,5,4145,3389,19,12,-84,60,204,-84
-36,-7,4146,3393,8,10,-84,60,204,-84
-38,-23,4136,3401,7,12,-84,60,204,-84
-40,-15,4165,3388,14,9,-84,60,204,-84
-46,-9,4168,3387,11,8,-78,56,208,-78
-45,-3,4161,3380,6,13,-78,56,208,-78
-40,-16,4121,3394,9,12,-78,56,208,-78
-36,-8,4163,3388,12,7,-78,56,208,-78
-36,-1,4147,3378,12,10,-78,56,208,-78
-43,-18,4139,3377,13,11,-81,57,199,-81
-38,-12,4158,3378,10,4,-81,57,199,-81
-48,-23,4147,3379,13,2,-81,57,199,-81
-61,-10,4152,3382,15,3,-81,57,199,-81
-42,-19,4139,3384,16,2,-81,57,199,-81
-59,-28,4132,3392,20,4,-87,57,197,-87
-54,-4,4139,3385,22,3,-87,57,197,-87
-38,-23,4156,3389,21,8,-87,57,197,-87
-47,-4,4126,3370,27,1,-87,57,197,-87
-42,-16,4141,3380,29,-2,-87,57,197,-87
-64,10,4156,3386,17,1,-91,57,197,-91
-45,-20,4135,3387,18,1,-91,57,197,-91
-53,-30,4157,3380,24,-1,-91,57,197,-91
-34,-9,4131,3378,23,-9,-91,57,197,-91
-43,-18,4131,3376,22,-6,-91,57,197,-91
-37,5,4161,3378,21,-3,-82,62,198,-82
-41,6,4175,3384,20,-1,-82,62,198,-82
-46,-2,4138,3390,17,1,-82,62,198,-82
-39,-27,4124,3381,14,0,-82,62,198,-82
-35,-12,4142,3384,12,4,-82,62,198,-82
-29,-24,4122,3391,11,2,-91,53,201,-91
-28,-16,4108,3387,13,3,-91,53,201,-91
-23,0,4137,3394,14,3,-91,53,201,-91
-38,4,4148,3377,21,4,-91,53,201,-91
-40,-10,4156,3374,19,6,-91,53,201,-91
-28,-20,4151,3391,18,6,-82,52,200,-82
-26,-13,4125,3386,19,-3,-82,52,200,-82
-35,1,4135,3378,21,2,-82,52,200,-82
-37,-14,4170,3385,20,5,-82,52,200,-82
-40,-4,4155,3386,15,7,-82,52,200,-82
-41,-16,4128,3401,16,7,-82,52,200,-82
-47,-11,4151,3380,22,9,-82,52,200,-82
-36,-5,4150,3376,16,6,-82,52,200,-82
-34,11,4133,3373,16,14,-82,52,200,-82
-37,16,4114,3381,9,13,-82,52,200,-82
-23,-5,4163,3374,13,7,-82,52,200,-82
-37,1,4155,3378,15,11,-86,52,208,-86
-20,6,4159,3382,13,7,-86,52,208,-86
-35,-7,4143,3379,17,8,-86,52,208,-86
-31,0,4124,3387,11,7,-86,52,208,-86
-18,10,4163,3380,13,0,-86,52,208,-86
-26,9,4147,3385,14,3,-73,53,205,-73
-41,4,4168,3391,16,5,-73,53,205,-73
-39,16,4164,3383,17,0,-73,53,205,-73
-2,6,4160,3374,17,6,-73,53,205,-73
-31,3,4150,3388,13,4,-73,53,205,-73
-41,5,4158,3389,13,5,-74,54,196,-74
-39,-1,4150,3387,10,4,-74,54,196,-74
-46,7,4128,3380,15,0,-74,54,196,-74
-21,-15,4164,3378,19,2,-74,54,196,-74
-47,8,4155,3384,15,8,-74,54,196,-74
-43,-15,4133,3373,17,4,-86,54,198,-86
-36,-9,4143,3380,19,1,-86,54,198,-86
-44,-8,4157,3377,14,2,-86,54,198,-86
-37,-10,4164,3375,20,-2,-86,54,198,-86
-26,0,4148,3393,18,0,-86,54,198,-86
-46,5,4125,3385,18,-4,-84,54,204,-84
-34,-14,4142,3380,15,-1,-84,54,204,-84
-36,-18,4154,3385,15,-3,-84,54,204,-84
-36,-20,4140,3397,19,0,-84,54,204,-84
-42,0,4136,3373,23,2,-84,54,204,-84
-26,1,4104,3367,23,1,-84,60,202,-84
-28,-7,4157,3380,18,3,-84,60,202,-84
-5,-11,4111,3386,14,3,-84,60,202,-84
-43,-10,4140,3382,14,-1,-84,60,202,-84
-26,3,4134,3385,12,1,-84,60,202,-84
-22,-6,4166,3400,12,2,-87,59,199,-87
-47,-4,4136,3399,18,3,-87,59,199,-87
-32,-7,4140,3386,17,6,-87,59,199,-87
-27,-13,4150,3384,16,7,-87,59,199,-87
-39,-14,4138,3390,10,9,-87,59,199,-87
-25,-19,4135,3384,11,3,-88,52,208,-88
-48,-10,4132,3384,19,5,-88,52,208,-88
-34,-4,4152,3390,17,14,-88,52,208,-88
-45,9,4135,3382,16,8,-88,52,208,-88
-39,4,4159,3376,16,12,-88,52,208,-88
-47,-20,4150,3384,14,8,-81,53,205,-81
-44,-18,4159,3382,17,11,-81,53,205,-81
-46,-5,4135,3380,18,11,-81,53,205,-81
-34,-11,4136,3376,16,7,-81,53,205,-81
-46,-16,4114,3376,19,7,-81,53,205,-81
-57,-17,4136,3374,19,6,-74,58,194,-74
-35,-10,4162,3381,14,10,-74,58,194,-74
-54,-12,4126,3384,8,9,-74,58,194,-74
-45,-1,4159,3382,11,5,-74,58,194,-74
-46,2,4153,3382,12,2,-74,58,194,-74
-38,5,4150,3388,15,5,-80,62,206,-80
-44,1,4103,3369,16,8,-80,62,206,-80
-46,-17,4134,3375,20,8,-80,62,206,-80
-49,-12,4137,3387,15,6,-80,62,206,-80
-47,-18,4135,3383,18,3,-80,62,206,-80
-52,4,4151,3381,15,4,-84,50,206,-84
-47,3,4160,3383,11,6,-84,50,206,-84
-50,-8,4143,3388,19,2,-84,50,206,-84
-60,-9,4163,3389,17,5,-84,50,206,-84
-37,6,4132,3379,18,2,-84,50,206,-84
-25,-4,4153,3376,17,1,-90,62,204,-90
-51,-8,4146,3374,20,-1,-90,62,204,-90
-41,2,4136,3380,24,2,-90,62,204,-90
-39,8,4133,3399,19,1,-90,62,204,-90
-32,1,4163,3395,17,-5,-90,62,204,-90
-37,1,4152,3378,17,-2,-81,51,201,-81
-39,-4,4140,3388,21,-2,-81,51,201,-81
-25,-14,4156,3389,19,-1,-81,51,201,-81
-34,9,4121,3382,18,6,-81,51,201,-81
-38,-6,4127,3379,17,3,-81,51,201,-81
-26,-8,4117,3381,19,-1,-82,54,206,-82
-42,-3,4138,3389,17,-1,-82,54,206,-82
-23,-4,4146,3388,22,-2,-82,54,206,-82
-18,-13,4159,3381,19,0,-82,54,206,-82
-22,-14,4151,3385,18,-6,-82,54,206,-82
-9,-10,4130,3381,23,-1,-82,62,210,-82
-35,4,4150,3387,23,4,-82,62,210,-82
-25,1,4100,3382,15,7,-82,62,210,-82
-27,-19,4146,3397,13,7,-82,62,210,-82
-17,6,4123,3389,12,9,-82,62,210,-82
-24,-5,4140,3372,13,8,-82,62,210,-82
-39,0,4147,3368,11,-1,-82,62,210,-82
-31,-10,4146,3384,12,-6,-82,62,210,-82
-37,-13,4117,3386,10,0,-82,62,210,-82
-38,-6,4132,3376,18,6,-82,62,210,-82
-34,2,4153,3379,11,7,-82,62,210,-82
-28,13,4096,3384,5,7,-72,56,204,-72
-34,17,4105,3384,11,11,-72,56,204,-72
-38,-12,4134,3381,11,8,-72,56,204,-72
-28,1,4129,3379,12,11,-72,56,204,-72
-35,-7,4159,3388,15,11,-72,56,204,-72
-28,-9,4131,3381,15,7,-85,57,203,-85
-26,-3,4166,3387,14,9,-85,57,203,-85
-49,15,4134,3379,13,7,-85,57,203,-85
-40,4,4146,3388,18,8,-85,57,203,-85
-28,10,4141,3386,18,11,-85,57,203,-85
-43,4,4159,3378,12,9,-79,67,201,-79
-45,-10,4128,3381,17,9,-79,67,201,-79
-45,-17,4158,3376,20,4,-79,67,201,-79
-48,1,4153,3371,17,-1,-79,67,201,-79
-45,-4,4128,3373,15,7,-77,57,197,-77
-52,-13,4178,3368,17,5,-77,57,197,-77
-49,-9,4146,3376,23,3,-77,57,197,-77
-47,9,4136,3386,17,4,-86,58,204,-86
-33,-1,4156,3377,11,5,-86,58,204,-86
-30,6,4159,3382,9,7,-86,58,204,-86
-30,-8,4140,3391,15,7,-86,58,204,-86
-42,2,4162,3391,17,5,-86,58,204,-86
-38,-4,4152,3386,11,3,-87,55,197,-87
-40,0,4141,3380,20,4,-87,55,197,-87
-29,-8,4172,3386,17,1,-87,55,197,-87
-38,-1,4131,3384,19,-5,-87,55,197,-87
-33,11,4150,3386,17,-5,-87,55,197,-87
-30,19,4143,3382,12,0,-89,59,201,-89
-50,1,4117,3378,16,6,-89,59,201,-89
-40,6,4152,3377,13,3,-89,59,201,-89
-43,-4,4148,3383,14,6,-89,59,201,-89
-29,-11,4123,3391,21,5,-89,59,201,-89
-40,-11,4142,3385,20,1,-80,60,204,-80
-33,10,4178,3386,21,0,-80,60,204,-80
-33,10,4131,3389,10,-4,-80,60,204,-80
-43,4,4130,3387,12,3,-80,60,204,-80
-27,16,4142,3378,16,-2,-80,60,204,-80
-36,-14,4130,3382,16,2,-88,54,210,-88
-51,-7,4157,3378,15,9,-88,54,210,-88
-45,-2,4150,3377,17,3,-88,54,210,-88
-47,-2,4136,3384,16,3,-88,54,210,-88
-29,-6,4153,3372,18,4,-88,54,210,-88
-38,-7,4131,3392,21,7,-83,51,203,-83
-35,-24,4131,3387,17,5,-83,51,203,-83
-36,-11,4116,3385,12,4,-83,51,203,-83
-34,-2,4153,3387,17,5,-83,51,203,-83
-28,8,4160,3379,15,4,-83,51,203,-83
-26,-5,4154,3375,14,6,-85,59,203,-85
-26,-7,4133,3377,16,7,-85,59,203,-85
-32,-1,4136,3380,16,7,-85,59,203,-85
-31,-7,4142,3383,12,4,-85,59,203,-85
-29,-13,4151,3371,18,0,-85,59,203,-85
-39,-6,4146,3380,16,2,-85,59,203,-85
-40,-11,4101,3384,9,3,-85,59,203,-85
-52,-9,4132,3387,16,-2,-85,59,203,-85
-50,-13,4149,3390,17,0,-85,59,203,-85
-56,-3,4154,3389,21,5,-85,59,203,-85
-49,-13,4156,3390,18,6,-85,59,203,-85
-29,5,4128,3387,17,3,-85,55,209,-85
-45,-19,4145,3376,21,4,-85,55,209,-85
-38,-15,4141,3383,21,7,-85,55,209,-85
-42,-14,4174,3390,17,3,-85,55,209,-85
-30,-9,4152,3388,19,-1,-85,55,209,-85
-43,-21,4139,3384,12,1,-82,66,198,-82
-57,-23,4135,3386,17,0,-82,66,198,-82
-46,-31,4118,3393,18,-3,-82,66,198,-82
-33,-3,4134,3389,19,-4,-82,66,198,-82
-39,-14,4129,3384,15,-1,-82,66,198,-82
-43,-20,4145,3383,16,-1,-83,57,193,-83
-33,-19,4161,3392,17,1,-83,57,193,-83
-43,-15,4131,3376,14,5,-83,57,193,-83
-38,-11,4127,3381,16,2,-83,57,193,-83
-29,-3,4168,3390,19,-1,-83,57,193,-83
-42,2,4137,3399,17,-1,-85,55,201,-85
-43,-22,4157,3395,22,6,-85,55,201,-85
-41,-7,4138,3395,21,4,-85,55,201,-85
-41,-4,4154,3387,22,5,-85,55,201,-85
-38,-9,4143,3377,19,3,-85,55,201,-85
-29,-12,4124,3373,16,3,-89,55,203,-89
-62,-13,4158,3376,15,10,-82,48,208,-82
-44,-3,4132,3385,10,5,-82,48,208,-82
-32,9,4145,3378,11,7,-82,48,208,-82
-39,-23,4165,3377,13,10,-82,48,208,-82
-41,-4,4150,3380,16,8,-82,48,208,-82
-24,7,4124,3379,17,7,-82,48,208,-82
-36,-2,4150,3392,16,6,-82,48,208,-82
-56,-15,4126,3377,11,0,-82,48,208,-82
-46,-7,4153,3379,11,2,-82,48,208,-82
-45,-18,4173,3386,15,6,-84,56,202,-84
-45,-24,4148,3382,14,8,-84,56,202,-84
-33,-16,4137,3384,16,9,-84,56,202,-84
-25,2,4154,3381,21,10,-84,56,202,-84
-30,-16,4167,3377,18,4,-84,60,198,-84
-33,-6,4131,3376,14,-1,-84,60,198,-84
-33,6,4147,3383,15,-1,-84,60,198,-84
-23,-9,4126,3381,19,-1,-84,60,198,-84
-47,6,4131,3386,22,-1,-84,60,198,-84
-38,-19,4152,3394,20,-3,-84,60,198,-84
-30,1,4133,3389,18,-3,-83,57,199,-83
-38,-9,4158,3389,20,-1,-83,57,199,-83
-47,-8,4178,3390,17,2,-83,57,199,-83
-37,-15,4119,3384,14,4,-83,57,199,-83
-43,4,4122,3392,14,2,-83,57,199,-83
-21,13,4139,3393,19,-4,-80,58,204,-80
-50,8,4147,3382,19,4,-80,58,204,-80
-32,4,4126,3385,14,4,-80,58,204,-80
-27,-8,4131,3391,19,3,-80,58,204,-80
-18,9,4128,3385,24,0,-80,58,204,-80
-9,-5,4135,3389,18,1,-82,50,202,-82
-22,-5,4138,3384,10,2,-82,50,202,-82
-37,-2,4139,3379,15,9,-82,50,202,-82
-43,6,4135,3388,16,8,-82,50,202,-82
-21,-10,4156,3384,11,2,-82,50,202,-82
-43,-2,4137,3391,15,-2,-78,54,202,-78
-39,-13,4116,3392,17,3,-78,54,202,-78
-39,-28,4110,3381,14,4,-78,54,202,-78
-29,-2,4135,3382,15,2,-78,54,202,-78
-33,-10,4162,3376,13,1,-78,54,202,-78
-36,-3,4148,3388,14,2,-90,50,202,-90
-42,-2,4145,3381,13,6,-90,50,202,-90
-32,-3,4121,3384,16,6,-90,50,202,-90
-34,-10,4127,3384,16,4,-90,50,202,-90
-47,-6,4165,3382,21,6,-90,50,202,-90
-33,7,4160,3384,19,6,-89,57,207,-89
-41,0,4157,3396,14,5,-89,57,207,-89
-34,-5,4140,3383,12,4,-89,57,207,-89
-34,-7,4134,3370,12,6,-89,57,207,-89
-41,-6,4147,3373,11,9,-89,57,207,-89
-40,-15,4165,3379,8,5,-80,54,208,-80
-46,-8,4123,3380,17,5,-80,54,208,-80
-53,-5,4169,3382,21,4,-80,54,208,-80
-39,2,4156,3391,18,5,-80,54,208,-80
-28,11,4163,3392,17,1,-80,54,208,-80
-52,-18,4136,3391,19,3,-86,58,198,-86
-38,-5,4151,3380,18,-3,-86,58,198,-86
-35,3,4157,3393,24,-2,-86,58,198,-86
-35,4,4112,3384,24,6,-86,58,198,-86
-40,-3,4113,3383,21,2,-86,58,198,-86
-47,-25,4131,3389,17,2,-87,51,201,-87
-48,7,4151,3378,20,2,-87,51,201,-87
-26,-19,4146,3371,22,3,-87,51,201,-87
-49,-7,4168,3378,20,4,-87,51,201,-87
-24,-16,4174,3378,17,2,-87,51,201,-87
-40,-16,4155,3393,21,3,-83,53,201,-83
-29,2,4126,3388,22,1,-83,53,201,-83
-20,2,4116,3379,15,3,-83,53,201,-83
-54,-23,4160,3385,22,-3,-83,53,201,-83
-19,-11,4189,3385,19,2,-83,53,201,-83
-30,-20,4125,3386,17,2,-84,56,204,-84
-29,-1,4151,3384,20,-4,-84,56,204,-84
-47,2,4155,3375,20,-1,-84,56,204,-84
-37,-13,4149,3383,15,5,-84,56,204,-84
-19,-11,4127,3378,14,1,-84,56,204,-84
-26,-19,4143,3389,11,0,-81,57,207,-81
-35,-13,4146,3393,13,8,-81,57,207,-81
-30,-10,4180,3392,14,9,-81,57,207,-81
-22,-16,4175,3384,14,8,-81,57,207,-81
-33,4,4150,3394,14,1,-81,57,207,-81
-36,-9,4132,3396,12,0,-86,66,204,-86
-39,-2,4154,3387,18,2,-86,66,204,-86
-38,3,4140,3378,14,7,-86,66,204,-86
-32,-1,4142,3395,15,5,-86,66,204,-86
-47,18,4120,3385,16,5,-86,66,204,-86
-28,2,4148,3384,15,4,-89,61,205,-89
-40,-1,4131,3396,17,7,-89,61,205,-89
-43,-5,4129,3389,20,3,-89,61,205,-89
-22,-3,4139,3394,18,9,-89,61,205,-89
-29,8,4157,3381,18,9,-89,61,205,-89
-35,6,4146,3381,17,3,-89,61,205,-89
-41,10,4139,3379,17,-1,-89,61,205,-89
-43,10,4161,3382,17,4,-89,61,205,-89
-43,-11,4140,3378,20,2,-89,61,205,-89
-33,-7,4151,3378,14,6,-89,61,205,-89
-50,1,4152,3381,15,5,-89,61,205,-89
-44,3,4138,3398,19,5,-84,60,196,-84
-31,-2,4157,3387,10,1,-84,60,196,-84
-38,7,4144,3388,13,1,-84,60,196,-84
-33,-10,4160,3383,18,1,-84,60,196,-84
-45,-12,4125,3379,18,7,-82,54,208,-82
-16,-9,4133,3380,21,5,-82,54,208,-82
-28,-22,4148,3391,17,-1,-82,54,208,-82
-25,-19,4175,3393,10,3,-82,54,208,-82
-39,2,4139,3389,13,7,-82,54,208,-82
-26,-6,4141,3394,15,9,-82,54,208,-82
-35,0,4148,3383,19,5,-82,66,202,-82
-29,0,4160,3388,12,7,-82,66,202,-82
-27,-3,4140,3392,12,6,-82,66,202,-82
-30,-12,4132,3384,13,1,-82,66,202,-82
-49,10,4132,3374,12,3,-82,66,202,-82
-44,1,4140,3374,9,1,-84,54,202,-84
-40,-13,4112,3389,12,-4,-84,54,202,-84
-40,-7,4123,3374,18,7,-84,54,202,-84
-40,-2,4178,3377,14,8,-84,54,202,-84
-40,4,4145,3373,10,9,-84,54,202,-84
-37,0,4157,3389,17,4,-82,62,200,-82
-41,-7,4137,3391,12,7,-82,62,200,-82
-28,-3,4179,3381,16,5,-82,62,200,-82
-46,3,4129,3376,12,0,-82,62,200,-82
-47,-12,4137,3387,12,6,-82,62,200,-82
-37,-19,4128,3396,13,6,-79,53,203,-79
-40,-1,4144,3392,11,5,-79,53,203,-79
-47,-14,4108,3386,16,7,-79,53,203,-79
-34,-6,4140,3380,14,6,-79,53,203,-79
-41,-8,4136,3377,12,6,-79,53,203,-79
-60,-8,4153,3376,16,-1,-87,53,201,-87
-42,-8,4188,3387,14,3,-87,53,201,-87
-46,-30,4155,3381,17,6,-87,53,201,-87
-56,-9,4155,3395,18,4,-87,53,201,-87
-47,1,4143,3386,21,9,-87,53,201,-87
-44,-20,4134,3379,20,5,-83,59,195,-83
-41,-28,4150,3380,20,0,-83,59,195,-83
-43,0,4120,3388,17,1,-83,59,195,-83
-36,-32,4127,3384,18,-1,-83,59,195,-83
-50,-13,4143,3380,21,0,-83,59,195,-83
-51,-1,4137,3384,18,1,-81,49,197,-81
-44,10,4147,3389,17,-1,-81,49,197,-81
-43,-3,4130,3393,20,3,-81,49,197,-81
-31,-17,4137,3394,19,2,-81,49,197,-81
-27,-16,4142,3387,22,0,-81,49,197,-81
-31,-11,4136,3389,17,4,-89,53,201,-89
-47,-9,4137,3396,17,1,-89,53,201,-89
-36,-23,4178,3385,21,-3,-89,53,201,-89
-27,-8,4118,3386,18,-5,-89,53,201,-89
-31,-14,4171,3381,18,2,-89,53,201,-89
-27,-10,4123,3392,16,6,-86,46,200,-86
-17,11,4130,3384,16,-2,-86,46,200,-86
-38,-9,4145,3375,15,-2,-86,46,200,-86
-23,-14,4118,3379,20,0,-86,46,200,-86
-15,0,4137,3378,17,-3,-86,46,200,-86
-20,-14,4145,3388,18,-1,-81,61,195,-81
-17,9,4140,3366,13,2,-81,61,195,-81
-19,-3,4175,3369,16,6,-81,61,195,-81
-38,-8,4151,3388,16,2,-81,61,195,-81
-33,2,4139,3380,13,4,-81,61,195,-81
-48,-11,4139,3383,15,6,-82,52,208,-82
-34,1,4150,3385,15,9,-82,52,208,-82
-21,14,4167,3379,18,13,-82,52,208,-82
-32,-4,4131,3381,18,7,-82,52,208,-82
-35,7,4125,3392,13,3,-82,52,208,-82
-40,4,4154,3388,15,9,-85,57,205,-85
-45,14,4139,3384,16,10,-85,57,205,-85
-27,8,4154,3390,15,2,-85,57,205,-85
-49,-5,4157,3388,17,12,-85,57,205,-85
-40,-9,4124,3394,16,19,-85,57,205,-85
-47,3,4155,3378,9,14,-79,53,201,-79
-48,-8,4149,3389,15,14,-79,53,201,-79
-38,-13,4116,3381,10,12,-79,53,201,-79
-59,5,4147,3390,10,13,-79,53,201,-79
-48,-11,4163,3380,9,9,-79,53,201,-79
-52,-14,4137,3393,11,10,-89,53,205,-89
-54,1,4159,3385,8,11,-89,53,205,-89
-61,-13,4141,3393,11,13,-89,53,205,-89
-50,-1,4129,3394,16,6,-89,53,205,-89
-58,-5,4156,3383,7,2,-89,53,205,-89
-39,1,4160,3389,8,9,-89,53,205,-89
-48,-16,4136,3387,15,9,-89,53,205,-89
-44,-24,4149,3384,12,3,-89,53,205,-89
-58,-15,4170,3386,18,11,-89,53,205,-89
-69,-6,4159,3374,13,7,-89,53,205,-89
-42,-17,4151,3386,18,0,-89,53,205,-89
-57,-19,4153,3390,20,-2,-89,53,205,-89
-52,-15,4155,3372,21,3,-89,53,205,-89
-41,-10,4139,3386,26,-6,-89,53,205,-89
-32,-9,4128,3387,21,-9,-89,53,205,-89
-35,-5,4148,3388,17,-7,-77,51,201,-77
-30,-13,4153,3377,19,-11,-77,51,201,-77
-41,-37,4149,3385,23,-6,-77,51,201,-77
-35,-9,4155,3386,22,-8,-77,51,201,-77
-41,-25,4152,3392,18,-5,-77,51,201,-77
-32,-23,4126,3389,20,-4,-77,51,201,-77
-21,-8,4120,3388,22,-3,-83,55,201,-83
-32,-20,4139,3382,21,-3,-83,55,201,-83
-32,-17,4124,3373,21,-5,-83,55,201,-83
-28,-24,4116,3388,17,-3,-83,55,201,-83
1,-8,4144,3401,18,2,-83,55,201,-83
-34,-2,4144,3393,19,0,-84,54,202,-84
-22,3,4161,3378,15,3,-84,54,202,-84
-34,10,4143,3373,12,4,-84,54,202,-84
-36,22,4126,3377,22,0,-84,54,202,-84
-37,5,4124,3384,17,1,-84,54,202,-84
-22,10,4118,3388,15,5,-81,65,201,-81
-22,10,4144,3397,13,4,-81,65,201,-81
-25,3,4162,3389,17,9,-81,65,201,-81
-20,7,4134,3389,15,8,-81,65,201,-81
-19,-4,4168,3379,15,12,-81,65,201,-81
-44,-14,4140,3382,9,12,-83,57,203,-83
-38,-6,4147,3386,10,5,-83,57,203,-83
-52,8,4160,3372,13,8,-83,57,203,-83
-45,11,4145,3367,15,8,-83,57,203,-83
-35,6,4139,3382,12,13,-83,57,203,-83
-32,8,4145,3383,8,16,-76,64,202,-76
-39,9,4133,3382,7,14,-76,64,202,-76
-47,-2,4190,3376,8,16,-76,64,202,-76
-45,2,4154,3379,6,15,-76,64,202,-76
-71,-1,4148,3380,10,10,-76,64,202,-76
-42,-14,4162,3380,10,9,-86,52,200,-86
-39,17,4189,3375,12,4,-86,52,200,-86
-49,6,4163,3388,14,9,-86,52,200,-86
-56,-4,4166,3395,12,11,-86,52,200,-86
-45,-3,4147,3403,16,4,-86,52,200,-86
-36,-1,4146,3380,14,2,-91,53,199,-91
-53,1,4171,3379,12,1,-91,53,199,-91
-43,-1,4162,3379,22,-1,-91,53,199,-91
-51,-10,4108,3380,21,-2,-91,53,199,-91
-48,-9,4130,3376,16,-10,-91,53,199,-91
-33,-10,4152,3380,16,-10,-87,57,195,-87
-39,-4,4175,3384,22,-8,-87,57,195,-87
-45,-20,4166,3379,19,-6,-87,57,195,-87
-22,-5,4156,3383,21,-1,-87,57,195,-87
-29,-11,4155,3391,21,0,-87,57,195,-87
-44,-13,4159,3379,18,-9,-83,65,193,-83
-48,2,4137,3387,23,-7,-83,65,193,-83
-35,-29,4148,3381,29,-11,-83,65,193,-83
-43,-9,4133,3376,28,-2,-83,65,193,-83
-37,-18,4152,3385,22,5,-83,65,193,-83
-33,-14,4172,3378,19,-2,-84,58,194,-84
-22,-13,4164,3379,24,-1,-84,58,194,-84
-27,-31,4129,3383,22,-4,-84,58,194,-84
-34,-34,4144,3387,24,0,-84,58,194,-84
-20,-16,4159,3372,23,4,-84,58,194,-84
-44,-22,4129,3375,19,4,-86,64,210,-86
-35,-12,4117,3381,13,2,-86,64,210,-86
-13,-10,4101,3384,16,3,-86,64,210,-86
-34,-18,4136,3380,19,6,-86,64,210,-86
-43,-23,4120,3376,17,5,-86,64,210,-86
-30,-5,4136,3372,18,3,-75,63,207,-75
-33,-17,4133,3386,19,6,-75,63,207,-75
-28,-11,4149,3372,13,4,-75,63,207,-75
-39,-5,4141,3385,18,10,-75,63,207,-75
-32,-16,4148,3381,14,13,-75,63,207,-75
-38,3,4143,3388,10,15,-79,57,199,-79
-23,-27,4159,3392,15,11,-79,57,199,-79
-35,-3,4122,3386,12,11,-79,57,199,-79
-41,-15,4159,3392,7,10,-79,57,199,-79
-50,-13,4140,3394,8,11,-79,57,199,-79
-47,-10,4146,3387,9,2,-91,57,205,-91
-36,-6,4148,3385,5,3,-91,57,205,-91
-50,-7,4136,3384,9,11,-91,57,205,-91
-45,-5,4159,3375,11,13,-91,57,205,-91
-37,-13,4179,3382,10,11,-91,57,205,-91
-39,-9,4163,3385,18,3,-86,58,204,-86
-47,-12,4189,3373,18,5,-86,58,204,-86
-58,-14,4161,3387,16,9,-86,58,204,-86
-61,-15,4145,3384,16,6,-86,58,204,-86
-34,-15,4129,3378,15,-2,-86,58,204,-86
-44,1,4120,3392,25,1,-86,58,204,-86
-20,-10,4105,3384,24,5,-86,58,204,-86
-32,12,4122,3388,18,-3,-86,58,204,-86
-42,9,4142,3391,18,-4,-86,58,204,-86
-51,-12,4139,3387,21,-1,-86,58,204,-86
-43,-8,4159,3398,20,2,-86,58,204,-86
-39,-5,4186,3381,21,0,-83,59,211,-83
-54,-2,4148,3389,21,-1,-83,59,211,-83
-30,11,4181,3394,22,0,-83,59,211,-83
-39,11,4138,3386,24,-1,-83,59,211,-83
-28,1,4127,3384,25,3,-83,59,211,-83
-34,-1,4128,3389,17,-9,-82,56,196,-82
-41,-1,4167,3384,18,-10,-82,56,196,-82
-55,-5,4126,3377,14,-4,-82,56,196,-82
-36,-1,4154,3378,12,0,-82,56,196,-82
-38,3,4143,3376,17,-3,-82,56,196,-82
-51,0,4141,3379,17,1,-83,61,201,-83
-59,-9,4132,3383,14,8,-83,61,201,-83
-42,1,4144,3385,12,7,-83,61,201,-83
-26,-4,4137,3382,15,8,-83,61,201,-83
-33,-6,4174,3373,11,3,-83,61,201,-83
-32,7,4158,3387,11,5,-91,63,209,-91
-38,-13,4130,3380,14,8,-91,63,209,-91
-21,-4,4108,3380,14,1,-91,63,209,-91
-46,5,4143,3386,16,1,-91,63,209,-91
-41,-13,4156,3379,16,-2,-91,63,209,-91
-27,2,4142,3382,15,5,-84,50,212,-84
-25,-11,4171,3378,12,15,-84,50,212,-84
-32,0,4136,3378,13,16,-84,50,212,-84
-43,-9,4152,3388,11,18,-84,50,212,-84
-47,-5,4167,3397,16,12,-84,50,212,-84
-35,-26,4134,3385,13,14,-86,64,210,-86
-43,-1,4157,3372,9,17,-86,64,210,-86
-44,-35,4153,3385,15,15,-86,64,210,-86
-40,0,4161,3397,12,13,-86,64,210,-86
-55,0,4150,3385,12,7,-86,64,210,-86
-36,-18,4141,3389,15,3,-91,55,199,-91
-49,-10,4142,3391,14,0,-91,55,199,-91
-35,-14,4146,3386,9,2,-91,55,199,-91
-52,-10,4138,3387,16,9,-91,55,199,-91
-43,-22,4166,3381,11,7,-91,55,199,-91
-29,-14,4143,3381,9,1,-88,60,200,-88
-47,-11,4141,3383,15,0,-88,60,200,-88
-52,-37,4141,3371,18,-1,-88,60,200,-88
-36,-17,4166,3379,17,-5,-88,60,200,-88
-41,-38,4166,3387,13,-2,-85,53,203,-85
-30,-25,4174,3398,17,0,-85,53,203,-85
-44,-20,4109,3396,22,-3,-85,53,203,-85
-33,2,4122,3375,24,-6,-85,53,203,-85
-34,-15,4181,3381,25,-5,-85,53,203,-85
-29,-12,4163,3380,25,-2,-85,53,203,-85
-21,-3,4144,3384,17,-1,-80,50,200,-80
-42,-8,4143,3387,17,-6,-80,50,200,-80
-43,-10,4126,3385,25,1,-80,50,200,-80
-17,0,4130,3388,24,-2,-80,50,200,-80
-36,-10,4152,3382,21,0,-80,50,200,-80
-21,-19,4155,3385,17,0,-92,54,198,-92
-35,-10,4168,3390,20,1,-92,54,198,-92
-37,-1,4175,3376,24,4,-92,54,198,-92
-21,-16,4143,3388,21,0,-92,54,198,-92
-51,0,4137,3385,21,-3,-92,54,198,-92
-24,-2,4142,3383,14,5,-88,58,200,-88
-22,5,4140,3389,16,0,-88,58,200,-88
-30,3,4137,3388,16,0,-88,58,200,-88
-44,-4,4113,3383,14,7,-88,58,200,-88
-36,1,4121,3389,9,7,-88,58,200,-88
-36,8,4109,3375,14,8,-84,58,198,-84
-43,-8,4158,3381,11,12,-84,58,198,-84
-31,-10,4157,3375,10,11,-84,58,198,-84
-50,0,4155,3382,13,15,-84,58,198,-84
-39,-18,4143,3382,11,10,-84,58,198,-84
-30,-12,4156,3390,18,11,-87,53,201,-87
-27,-9,4147,3386,17,8,-87,53,201,-87
-33,7,4151,3387,17,11,-87,53,201,-87
-43,-1,4118,3394,18,5,-87,53,201,-87
-40,-2,4141,3389,9,9,-87,53,201,-87
-55,2,4112,3391,16,7,-88,52,198,-88
-31,-12,4131,3389,21,6,-88,52,198,-88
-37,7,4153,3380,15,10,-88,52,198,-88
-38,-5,4174,3364,12,9,-88,52,198,-88
-41,8,4176,3378,13,8,-88,52,198,-88
-30,-8,4191,3381,12,5,-80,54,204,-80
-35,3,4180,3372,19,0,-80,54,204,-80
-30,-20,4158,3373,18,-1,-80,54,204,-80
-53,-2,4155,3389,11,2,-80,54,204,-80
-36,-22,4165,3384,14,1,-80,54,204,-80
-42,0,4148,3386,19,-1,-80,54,204,-80
-55,-6,4147,3389,14,-3,-80,54,204,-80
-39,-10,4141,3385,19,-2,-80,54,204,-80
-41,-14,4133,3388,22,0,-80,54,204,-80
-26,0,4153,3384,19,0,-80,54,204,-80
-24,-9,4124,3393,19,-3,-80,54,204,-80
-45,-25,4129,3394,19,0,-81,47,209,-81
-30,0,4145,3373,22,-2,-81,47,209,-81
-35,-5,4134,3390,19,-2,-81,47,209,-81
-45,-15,4157,3394,21,3,-81,47,209,-81
-33,-12,4155,3396,22,3,-81,47,209,-81
-50,-20,4140,3393,23,3,-81,59,205,-81
-48,11,4142,3387,16,5,-81,59,205,-81
-30,13,4149,3388,20,5,-81,59,205,-81
-50,-25,4144,3394,17,5,-81,59,205,-81
-37,-16,4152,3393,18,3,-81,59,205,-81
-26,4,4143,3378,22,2,-84,50,208,-84
-43,4,4109,3394,17,4,-84,50,208,-84
-38,-16,4138,3396,14,10,-84,50,208,-84
-32,-15,4149,3390,18,6,-84,50,208,-84
-23,-8,4151,3390,15,5,-84,50,208,-84
-48,-29,4164,3392,16,6,-82,56,198,-82
-46,1,4152,3382,12,9,-82,56,198,-82
-55,-21,4147,3378,16,7,-82,56,198,-82
-31,-4,4160,3396,14,5,-82,56,198,-82
-50,-21,4135,3393,13,4,-82,56,198,-82
-35,-17,4136,3397,17,11,-84,54,198,-84
-47,-21,4131,3396,15,10,-84,54,198,-84
-34,-7,4140,3380,13,6,-84,54,198,-84
-43,-7,4155,3377,21,8,-84,54,198,-84
-50,-26,4142,3382,16,5,-84,54,198,-84
-33,-11,4163,3387,18,2,-85,59,205,-85
-39,-4,4117,3392,19,-1,-85,59,205,-85
-52,-9,4150,3390,17,3,-85,59,205,-85
-48,-9,4124,3390,21,5,-85,59,205,-85
-42,-17,4141,3380,17,6,-85,59,205,-85
-40,-8,4142,3380,13,6,-83,53,203,-83
-32,-16,4116,3399,17,3,-83,53,203,-83
-34,-1,4148,3392,19,-1,-83,53,203,-83
-34,-12,4158,3386,16,5,-83,53,203,-83
-41,-9,4146,3377,14,5,-83,53,203,-83
-36,-6,4141,3372,16,2,-79,61,205,-79
-49,-13,4143,3385,15,0,-79,61,205,-79
-35,-2,4163,3389,13,-2,-79,61,205,-79
-37,7,4144,3370,20,-3,-79,61,205,-79
-41,-9,4161,3379,22,2,-79,61,205,-79
-38,-13,4148,3376,17,0,-82,52,202,-82
-34,-10,4148,3390,19,1,-82,52,202,-82
-33,3,4166,3389,18,0,-82,52,202,-82
-52,-11,4149,3389,19,0,-82,52,202,-82
-31,-9,4115,3391,19,1,-87,59,197,-87
-33,-2,4119,3389,19,4,-87,59,197,-87
-43,-11,4128,3384,13,0,-87,59,197,-87
-28,-9,4163,3388,11,2,-87,59,197,-87
-24,-15,4103,3393,11,3,-87,59,197,-87
-35,-15,4116,3396,14,7,-87,59,197,-87
-42,0,4147,3386,15,3,-85,61,203,-85
-31,8,4145,3378,10,2,-85,61,203,-85
-36,-8,4116,3378,5,6,-85,61,203,-85
-46,15,4140,3372,14,9,-85,61,203,-85
-36,9,4169,3379,10,7,-84,54,200,-84
-38,-3,4146,3381,9,4,-84,54,200,-84
-47,-10,4128,3388,12,1,-84,54,200,-84
-24,1,4146,3391,18,6,-84,54,200,-84
-36,-2,4137,3393,18,7,-84,54,200,-84
-40,-6,4156,3385,12,2,-84,54,200,-84
-17,9,4150,3384,19,1,-85,53,203,-85
-32,-9,4136,3382,14,8,-85,53,203,-85
-36,4,4151,3392,15,8,-85,53,203,-85
-37,-4,4154,3385,12,5,-85,53,203,-85
-24,-21,4159,3373,17,1,-85,53,203,-85
-30,1,4151,3377,20,4,-89,57,199,-89
-45,1,4168,3382,15,1,-89,57,199,-89
-45,-13,4162,3393,17,6,-89,57,199,-89
-51,-14,4136,3386,17,14,-89,57,199,-89
-27,-5,4147,3381,19,8,-89,57,199,-89
-31,-3,4154,3381,16,4,-81,51,207,-81
-46,-14,4143,3387,19,9,-81,51,207,-81
-55,-7,4124,3387,12,3,-81,51,207,-81
-38,-20,4128,3383,11,2,-81,51,207,-81
-43,-11,4138,3385,22,1,-81,51,207,-81
-50,19,4120,3389,19,2,-81,51,207,-81
-45,8,4113,3386,14,2,-81,51,207,-81
-43,-13,4137,3395,14,1,-81,51,207,-81
-35,-22,4127,3383,16,3,-81,51,207,-81
-48,-4,4162,3377,19,0,-81,51,207,-81
-19,-22,4126,3381,18,5,-81,51,207,-81
-44,-14,4149,3380,15,2,-81,51,207,-81
-37,-17,4159,3390,17,4,-81,51,207,-81
-63,-15,4161,3390,19,4,-81,51,207,-81
-45,-6,4140,3379,21,1,-81,51,207,-81
-29,-6,4143,3384,13,6,-81,51,207,-81
-38,1,4152,3388,11,5,-87,59,207,-87
-45,-12,4132,3389,18,8,-87,59,207,-87
-44,-4,4139,3391,13,8,-87,59,207,-87
-44,0,4138,3380,16,10,-87,59,207,-87
-34,-3,4152,3395,15,9,-87,59,207,-87
-39,-4,4160,3383,13,4,-85,51,201,-85
-46,3,4178,3380,17,6,-85,51,201,-85
-32,-7,4133,3376,12,7,-85,51,201,-85
-41,-25,4128,3386,12,1,-85,51,201,-85
-41,-16,4143,3383,13,2,-85,51,201,-85
-29,-14,4128,3384,19,2,-84,56,202,-84
-33,-11,4175,3391,20,8,-84,56,202,-84
-38,-18,4185,3384,18,3,-84,56,202,-84
-46,-18,4149,3386,14,5,-84,56,202,-84
-50,3,4125,3391,14,9,-84,56,202,-84
-36,-3,4158,3387,16,7,-80,56,208,-80
-41,6,4165,3384,18,5,-80,56,208,-80
-36,-7,4148,3387,20,-3,-80,56,208,-80
-48,-4,4143,3392,24,2,-80,56,208,-80
-34,-1,4152,3392,19,3,-80,56,208,-80
-20,1,4146,3390,23,0,-79,57,201,-79
-33,-18,4129,3398,16,8,-79,57,201,-79
-31,-7,4168,3388,19,0,-79,57,201,-79
-55,-9,4154,3378,23,-2,-79,57,201,-79
-46,-9,4167,3379,18,0,-79,57,201,-79
-49,4,4157,3385,17,3,-83,49,197,-83
-48,-21,4126,3395,9,5,-83,49,197,-83
-42,-1,4162,3387,12,7,-83,49,197,-83
-36,0,4147,3385,18,9,-83,49,197,-83
-33,-2,4155,3375,16,2,-83,49,197,-83
-36,16,4139,3385,14,3,-83,59,203,-83
-28,-3,4140,3390,15,0,-83,59,203,-83
-42,4,4145,3390,19,-5,-83,59,203,-83
-34,9,4152,3380,14,3,-83,59,203,-83
-22,-8,4137,3376,14,7,-83,59,203,-83
-45,-14,4143,3370,18,5,-88,46,204,-88
-39,6,4121,3384,23,9,-88,46,204,-88
-28,-7,4144,3388,16,7,-88,46,204,-88
-25,-11,4131,3380,8,6,-88,46,204,-88
-29,-1,4146,3373,15,4,-88,46,204,-88
-34,-6,4165,3371,15,5,-83,57,199,-83
-24,-2,4150,3386,12,3,-83,57,199,-83
-46,-17,4145,3392,13,0,-83,57,199,-83
-30,-9,4138,3382,21,4,-83,57,199,-83
-38,0,4153,3376,18,7,-83,57,199,-83
-36,9,4144,3391,18,3,-80,56,204,-80
-44,-11,4137,3385,16,1,-80,56,204,-80
-26,-17,4154,3382,17,4,-80,56,204,-80
-43,1,4150,3387,17,6,-80,56,204,-80
-42,-7,4146,3388,16,6,-80,56,204,-80
-45,2,4168,3382,12,5,-84,64,198,-84
-50,-13,4154,3381,14,5,-84,64,198,-84
-34,-1,4130,3387,20,3,-84,64,198,-84
-18,-12,4152,3389,18,1,-84,64,198,-84
-52,-18,4180,3386,20,2,-84,64,198,-84
-44,-5,4154,3394,21,5,-87,57,207,-87
-46,-7,4132,3389,16,7,-87,57,207,-87
-33,-25,4146,3382,17,1,-87,57,207,-87
-29,-7,4146,3381,19,-2,-87,57,207,-87
-35,-9,4143,3379,19,-1,-87,57,207,-87
-55,-7,4146,3391,17,-4,-84,60,206,-84
-30,-7,4106,3386,13,-7,-84,60,206,-84
-35,-6,4096,3388,10,-1,-84,60,206,-84
-36,-1,4149,3387,13,4,-84,60,206,-84
-37,-13,4161,3379,16,4,-84,60,206,-84
-23,6,4166,3384,19,1,-88,56,200,-88
-37,-4,4149,3389,17,4,-88,56,200,-88
-32,-13,4127,3388,16,5,-88,56,200,-88
-23,-2,4127,3383,13,2,-88,56,200,-88
-38,-8,4165,3376,15,4,-88,56,200,-88
-13,12,4135,3385,15,7,-81,55,195,-81
-23,-4,4137,3380,14,2,-81,55,195,-81
-46,9,4107,3394,11,4,-81,55,195,-81
-32,-17,4129,3393,14,4,-81,55,195,-81
-33,17,4150,3382,16,2,-81,55,195,-81
-23,-2,4153,3377,21,2,-81,55,195,-81
-28,3,4141,3377,16,6,-81,55,195,-81
-15,10,4148,3381,18,7,-81,55,195,-81
-27,-6,4159,3387,16,9,-81,55,195,-81
-28,2,4166,3389,12,4,-81,55,195,-81
-25,-12,4135,3392,19,3,-81,55,195,-81
-36,1,4125,3390,25,7,-78,52,198,-78
-22,-3,4165,3382,20,4,-78,52,198,-78
-29,4,4151,3380,19,3,-78,52,198,-78
-45,-11,4170,3379,14,2,-78,52,198,-78
-36,5,4150,3381,19,2,-78,52,198,-78
-54,5,4121,3383,22,12,-89,59,203,-89
-51,5,4141,3369,21,7,-89,59,203,-89
-48,3,4136,3395,14,3,-89,59,203,-89
-48,6,4148,3391,12,10,-89,59,203,-89
-36,-3,4160,3387,12,9,-89,59,203,-89
-34,-14,4186,3390,5,8,-83,55,197,-83
-40,-9,4139,3393,15,6,-83,55,197,-83
-32,11,4159,3394,17,7,-83,55,197,-83
-38,-16,4150,3367,12,3,-83,55,197,-83
-35,20,4155,3374,17,9,-83,55,197,-83
-46,-3,4145,3376,15,0,-90,58,208,-90
-61,-6,4147,3382,12,0,-90,58,208,-90
-52,-5,4147,3386,17,8,-90,58,208,-90
-58,0,4136,3388,16,2,-90,58,208,-90
-61,-9,4126,3375,14,1,-90,58,208,-90
-37,-19,4157,3381,14,7,-82,62,196,-82
-41,-14,4180,3387,16,9,-82,62,196,-82
-39,-5,4171,3381,20,11,-82,62,196,-82
-54,10,4118,3380,15,7,-82,62,196,-82
-54,-31,4115,3384,17,7,-82,62,196,-82
-44,-15,4146,3378,15,6,-90,60,194,-90
-42,4,4158,3389,11,3,-90,60,194,-90
-40,-12,4147,3388,19,2,-90,60,194,-90
-51,-10,4141,3392,17,-1,-90,60,194,-90
-31,-12,4122,3394,18,-1,-90,60,194,-90
-35,-14,4160,3386,15,1,-81,57,205,-81
-37,-13,4155,3389,17,0,-81,57,205,-81
-23,0,4140,3383,17,-3,-81,57,205,-81
-38,-3,4175,3380,15,1,-81,57,205,-81
-35,6,4154,3379,13,-2,-81,57,205,-81
-17,-4,4135,3392,19,1,-84,58,200,-84
-18,-7,4154,3381,22,1,-84,58,200,-84
-38,-19,4173,3375,19,0,-84,58,200,-84
-27,-25,4180,3383,20,4,-84,58,200,-84
-35,-4,4165,3386,21,5,-84,58,200,-84
-22,9,4138,3381,18,-2,-87,59,207,-87
-32,-14,4112,3374,22,-4,-87,59,207,-87
-7,-3,4135,3390,24,0,-87,59,207,-87
-25,-7,4114,3398,22,-4,-87,59,207,-87
-28,-1,4160,3384,17,-2,-87,59,207,-87
-33,-14,4156,3382,15,4,-78,62,200,-78
-32,-25,4137,3379,20,3,-78,62,200,-78
-15,5,4156,3380,17,8,-78,62,200,-78
-17,-3,4139,3372,18,6,-78,62,200,-78
-23,-4,4155,3379,13,8,-78,62,200,-78
-32,-15,4109,3391,9,7,-86,62,202,-86
-50,-6,4125,3384,20,6,-86,62,202,-86
-34,-7,4164,3382,20,2,-86,62,202,-86
-46,-3,4132,3390,12,3,-86,62,202,-86
-44,21,4107,3389,13,3,-86,62,202,-86
-38,15,4128,3390,14,3,-83,59,201,-83
-48,-10,4134,3388,9,4,-83,59,201,-83
-30,5,4161,3393,16,3,-83,59,201,-83
-28,10,4164,3385,15,9,-83,59,201,-83
-37,-6,4132,3388,18,11,-83,59,201,-83
-34,-14,4148,3393,18,15,-86,60,206,-86
-34,5,4179,3392,19,10,-86,60,206,-86
-31,4,4153,3391,11,8,-86,60,206,-86
-40,1,4166,3398,8,10,-86,60,206,-86
-27,-3,4174,3391,8,10,-86,60,206,-86
-51,-4,4155,3381,9,5,-90,56,204,-90
-40,9,4142,3384,14,5,-90,56,204,-90
-39,11,4112,3387,18,5,-90,56,204,-90
-44,-1,4143,3376,14,8,-90,56,204,-90
-49,-8,4163,3369,13,9,-90,56,204,-90
-36,10,4163,3368,14,4,-78,66,202,-78
-47,8,4149,3382,19,7,-78,66,202,-78
-30,-8,4173,3373,18,8,-78,66,202,-78
-49,0,4176,3386,16,5,-78,66,202,-78
-45,9,4149,3376,17,4,-78,66,202,-78
-46,1,4121,3394,17,-7,-87,57,205,-87
-50,-10,4093,3389,15,-2,-87,57,205,-87
-45,-4,4165,3384,16,1,-87,57,205,-87
-56,6,4144,3388,18,0,-87,57,205,-87
-43,-7,4134,3396,18,-1,-87,57,205,-87
-43,7,4150,3385,14,-2,-87,57,205,-87
-24,-7,4150,3383,23,-1,-87,57,205,-87
-52,-3,4172,3379,17,-2,-87,57,205,-87
-36,-16,4140,3382,10,9,-87,57,205,-87
-57,-3,4149,3389,14,3,-87,57,205,-87
-40,-13,4137,3389,18,7,-87,57,205,-87
-49,-3,4154,3378,19,9,-86,56,204,-86
-29,-3,4167,3385,17,0,-86,56,204,-86
-36,0,4149,3391,12,-7,-86,56,204,-86
-35,-11,4138,3384,18,4,-86,56,204,-86
-55,-7,4150,3380,19,6,-86,56,204,-86
-54,-19,4152,3382,14,2,-83,59,205,-83
-32,-8,4141,3389,22,5,-83,59,205,-83
-49,-12,4138,3373,22,2,-83,59,205,-83
-40,-1,4152,3388,15,0,-83,59,205,-83
-48,-8,4133,3378,18,3,-83,59,205,-83
-37,-15,4154,3379,15,9,-80,52,204,-80
-47,14,4149,3383,13,2,-80,52,204,-80
-41,0,4158,3379,17,4,-80,52,204,-80
-36,-16,4124,3387,11,0,-80,52,204,-80
-42,-6,4143,3379,12,-5,-80,52,204,-80
-36,2,4116,3393,14,-2,-78,62,196,-78
-17,-15,4186,3373,15,0,-78,62,196,-78
-21,-10,4142,3383,16,3,-78,62,196,-78
-31,0,4166,3377,20,5,-78,62,196,-78
-18,-13,4151,3389,14,4,-78,62,196,-78
-49,-3,4171,3379,14,2,-90,62,208,-90
-42,-7,4147,3365,14,4,-90,62,208,-90
-32,-26,4133,3378,12,4,-90,62,208,-90
-41,-2,4135,3379,20,4,-90,62,208,-90
-22,-22,4141,3373,20,6,-90,62,208,-90
-11,-26,4146,3375,21,2,-84,54,196,-84
-31,-16,4170,3372,21,2,-84,54,196,-84
-35,-6,4182,3383,18,6,-84,54,196,-84
-35,14,4165,3379,21,10,-84,54,196,-84
-26,-16,4153,3390,21,-2,-84,54,196,-84
-47,-5,4187,3371,21,-4,-80,58,206,-80
-45,5,4135,3384,17,-4,-80,58,206,-80
-30,-2,4117,3390,13,-2,-80,58,206,-80
-34,-7,4118,3385,20,2,-80,58,206,-80
-50,1,4172,3391,19,3,-80,58,206,-80
-36,-20,4136,3381,23,-1,-83,49,201,-83
-29,3,4116,3383,23,1,-83,49,201,-83
-29,3,4142,3377,18,2,-83,49,201,-83
-32,4,4122,3378,20,3,-83,49,201,-83
-37,-9,4146,3376,10,3,-83,49,201,-83
-54,19,4120,3388,17,2,-85,59,199,-85
-26,-8,4151,3392,18,4,-85,59,199,-85
-55,8,4145,3390,16,9,-85,59,199,-85
-43,7,4146,3364,19,4,-85,59,199,-85
-38,0,4147,3379,16,7,-85,59,199,-85
-40,-6,4130,3384,10,12,-81,55,201,-81
-34,12,4113,3394,17,3,-81,55,201,-81
-40,2,4150,3384,20,9,-81,55,201,-81
-49,-8,4140,3384,11,8,-81,55,201,-81
-46,17,4162,3380,15,8,-81,55,201,-81
-48,-10,4134,3376,19,7,-81,61,205,-81
-40,15,4156,3372,12,7,-81,61,205,-81
-46,2,4140,3379,9,6,-81,61,205,-81
-37,7,4154,3385,23,0,-81,61,205,-81
-43,-3,4169,3386,21,0,-81,61,205,-81
-31,-1,4151,3390,15,8,-88,48,204,-88
-35,-5,4119,3388,15,10,-88,48,204,-88
-35,-2,4141,3390,18,9,-88,48,204,-88
-53,-10,4108,3383,21,4,-88,48,204,-88
-68,11,4119,3377,21,1,-88,48,204,-88
-50,-23,4134,3388,12,7,-85,55,195,-85
-47,-5,4169,3385,11,9,-85,55,195,-85
-42,6,4144,3387,14,7,-85,55,195,-85
-56,-23,4129,3380,12,9,-85,55,195,-85
-49,-5,4127,3378,12,4,-85,55,195,-85
-52,3,4162,3380,15,-1,-77,53,207,-77
-43,-3,4161,3385,11,4,-77,53,207,-77
-47,4,4153,3391,14,5,-77,53,207,-77
-58,-12,4160,3375,18,5,-77,53,207,-77
-49,-10,4154,3387,16,5,-77,53,207,-77
-45,6,4158,3384,13,6,-88,56,200,-88
-42,0,4138,3378,13,6,-88,56,200,-88
-37,-3,4133,3378,7,1,-88,56,200,-88
-44,-10,4149,3388,11,5,-88,56,200,-88
-37,5,4172,3381,16,4,-88,56,200,-88
-26,-21,4165,3394,17,-1,-83,51,203,-83
-23,-11,4150,3376,15,-1,-83,51,203,-83
-24,-1,4147,3374,15,1,-83,51,203,-83
-14,5,4155,3372,20,-4,-83,51,203,-83
-27,-13,4138,3384,15,2,-83,51,203,-83
-44,-21,4113,3391,19,-2,-83,51,203,-83
-35,7,4134,3395,22,-3,-83,51,203,-83
-56,7,4147,3375,14,-4,-83,51,203,-83
-33,-6,4147,3376,13,-1,-83,51,203,-83
-26,19,4155,3390,16,-1,-83,51,203,-83
-46,-11,4153,3382,21,0,-83,51,203,-83
-15,-26,4147,3379,21,-3,-83,51,203,-83
-16,-1,4131,3392,16,-2,-83,51,203,-83
-40,-13,4106,3389,17,-4,-83,51,203,-83
-25,0,4137,3385,18,1,-83,51,203,-83
-35,-16,4140,3386,24,2,-83,51,203,-83
-33,5,4122,3379,21,3,-92,60,204,-92
-41,-20,4141,3380,22,1,-92,60,204,-92
-26,-26,4152,3381,18,3,-92,60,204,-92
-33,0,4175,3384,9,7,-92,60,204,-92
-23,-15,4171,3388,13,12,-92,60,204,-92
-24,-14,4176,3387,10,13,-81,65,205,-81
-37,-20,4196,3380,12,7,-81,65,205,-81
-32,-14,4134,3380,16,6,-81,65,205,-81
-23,-22,4171,3389,18,8,-81,65,205,-81
-44,4,4138,3385,16,4,-81,65,205,-81
-46,1,4125,3388,14,6,-85,59,203,-85
-36,6,4134,3379,13,5,-85,59,203,-85
-25,1,4140,3373,13,6,-85,59,203,-85
-43,-6,4164,3378,15,7,-85,59,203,-85
-41,-17,4136,3380,13,11,-85,59,203,-85
-31,-9,4154,3379,12,5,-88,50,200,-88
-42,-7,4169,3379,9,5,-88,50,200,-88
-31,5,4151,3383,14,12,-88,50,200,-88
-45,5,4128,3382,13,7,-88,50,200,-88
-37,-4,4143,3375,13,-3,-88,50,200,-88
-33,-16,4144,3381,16,0,-86,50,198,-86
-48,-9,4159,3377,15,-4,-86,50,198,-86
-47,-3,4147,3379,13,-7,-86,50,198,-86
-57,-2,4128,3376,18,2,-86,50,198,-86
-35,-7,4135,3378,17,-2,-86,50,198,-86
-37,-8,4151,3380,21,-3,-75,61,199,-75
-48,-12,4139,3378,21,3,-75,61,199,-75
-50,14,4121,3373,19,2,-75,61,199,-75
-48,-3,4139,3376,20,2,-75,61,199,-75
-42,-4,4150,3380,19,-1,-75,61,199,-75
-33,12,4140,3389,15,-1,-83,51,199,-83
-32,-12,4152,3376,17,1,-83,51,199,-83
-47,5,4157,3378,12,0,-83,51,199,-83
-52,-7,4125,3384,13,-5,-83,51,199,-83
-46,1,4138,3384,16,6,-83,51,199,-83
-47,-2,4155,3394,19,7,-81,57,201,-81
-56,1,4133,3399,25,1,-81,57,201,-81
-54,2,4133,3382,23,-3,-81,57,201,-81
-51,0,4093,3384,16,7,-81,57,201,-81
-43,-9,4148,3389,15,6,-81,57,201,-81
-54,-3,4145,3394,12,5,-86,54,202,-86
-48,5,4143,3380,17,11,-86,54,202,-86
-40,-12,4119,3376,17,11,-86,54,202,-86
-57,-14,4150,3376,6,11,-86,54,202,-86
-37,-5,4157,3382,11,4,-86,54,202,-86
-32,-4,4140,3372,13,5,-87,61,199,-87
-49,-10,4132,3378,12,10,-87,61,199,-87
-51,-12,4161,3374,13,3,-87,61,199,-87
-41,-6,4139,3388,14,2,-87,61,199,-87
-47,12,4109,3385,16,5,-87,61,199,-87
-71,-2,4124,3381,21,6,-87,65,199,-87
-47,-10,4112,3388,19,1,-87,65,199,-87
-41,1,4161,3386,18,4,-87,65,199,-87
-43,-10,4153,3382,17,5,-87,65,199,-87
-35,-11,4133,3391,14,-1,-87,65,199,-87
-30,-32,4161,3398,16,-4,-82,54,208,-82
-34,-4,4142,3384,17,-2,-82,54,208,-82
-36,8,4148,3385,17,3,-82,54,208,-82
-28,-4,4164,3386,19,4,-82,54,208,-82
-23,-1,4117,3381,21,1,-82,54,208,-82
-27,-8,4154,3377,24,2,-88,58,204,-88
-31,-11,4155,3388,21,-1,-88,58,204,-88
-19,-5,4124,3384,19,0,-88,58,204,-88
-22,2,4148,3386,18,1,-88,58,204,-88
-27,-9,4131,3385,20,2,-88,58,204,-88
-26,-16,4130,3384,15,4,-84,54,210,-84
-17,-3,4120,3380,16,0,-84,54,210,-84
-28,-6,4167,3381,21,4,-84,54,210,-84
-34,-2,4141,3381,22,7,-84,54,210,-84
-43,-4,4149,3373,21,7,-86,56,206,-86
-32,-8,4141,3379,19,8,-86,56,206,-86
-30,-13,4145,3375,12,7,-86,56,206,-86
-30,1,4158,3374,10,6,-86,56,206,-86
-31,-11,4162,3382,14,2,-86,56,206,-86
-50,7,4142,3379,13,3,-86,56,206,-86
-36,-9,4133,3380,8,11,-86,56,206,-86
-45,-15,4159,3382,12,12,-86,56,206,-86
-47,9,4146,3386,11,10,-86,56,206,-86
-33,4,4130,3392,13,4,-86,56,206,-86
-46,-3,4157,3388,16,2,-86,56,206,-86
-29,1,4140,3393,15,9,-86,56,206,-86
-36,1,4133,3380,12,9,-86,56,206,-86
-35,14,4155,3381,15,10,-86,56,206,-86
-50,-18,4146,3370,12,8,-86,56,206,-86
-40,5,4126,3380,8,2,-86,56,206,-86
-25,-14,4150,3385,11,4,-86,56,206,-86
-26,7,4142,3382,11,5,-83,65,205,-83
-39,-1,4150,3382,13,4,-83,65,205,-83
-35,1,4140,3380,12,3,-83,65,205,-83
-44,12,4175,3374,12,2,-83,65,205,-83
-30,3,4137,3382,11,4,-83,65,205,-83
-39,4,4167,3384,18,9,-88,60,202,-88
-36,3,4150,3377,19,2,-88,60,202,-88
-27,3,4152,3376,16,-2,-88,60,202,-88
-41,-7,4153,3387,20,4,-88,60,202,-88
-28,-2,4143,3382,21,4,-88,60,202,-88
-31,-3,4146,3387,18,0,-90,56,200,-90
-34,12,4141,3378,25,-3,-90,56,200,-90
-35,-2,4137,3379,26,-6,-90,56,200,-90
-59,5,4124,3397,23,-1,-90,56,200,-90
-41,-13,4116,3393,18,6,-90,56,200,-90
-51,-7,4147,3382,14,0,-84,48,204,-84
-51,7,4156,3372,15,5,-84,48,204,-84
-39,9,4155,3376,24,4,-84,48,204,-84
-26,-2,4148,3385,24,3,-84,48,204,-84
-38,0,4133,3387,20,0,-84,48,204,-84
-41,0,4151,3378,18,4,-84,54,198,-84
-33,-2,4153,3380,14,9,-84,54,198,-84
-49,-14,4136,3384,7,10,-84,54,198,-84
-46,-5,4130,3394,13,7,-84,54,198,-84
-33,-11,4158,3392,17,7,-84,54,198,-84
-29,-10,4133,3379,12,7,-83,59,207,-83
-35,1,4122,3387,15,9,-83,59,207,-83
-48,-5,4147,3386,12,10,-83,59,207,-83
-39,-18,4133,3396,6,3,-83,59,207,-83
-30,-17,4134,3385,11,4,-83,59,207,-83
-36,-7,4163,3387,18,4,-91,63,203,-91
-28,-20,4164,3374,18,6,-91,63,203,-91
-51,-18,4140,3374,14,9,-91,63,203,-91
-18,9,4150,3376,14,10,-91,63,203,-91
-61,16,4130,3381,17,6,-79,47,205,-79
-33,1,4173,3379,19,6,-79,47,205,-79
-35,13,4141,3387,15,5,-79,47,205,-79
-53,-23,4137,3380,12,6,-79,47,205,-79
-32,-4,4170,3377,16,8,-79,47,205,-79
-41,13,4166,3370,16,9,-79,47,205,-79
-35,0,4145,3373,16,5,-85,57,199,-85
-31,-15,4162,3375,17,2,-85,57,199,-85
-34,2,4142,3374,16,2,-85,57,199,-85
-41,-5,4153,3380,12,4,-85,57,199,-85
-52,-4,4168,3385,12,2,-85,57,199,-85
-29,-2,4156,3378,18,4,-84,58,198,-84
-35,14,4143,3377,16,6,-84,58,198,-84
-35,-6,4134,3370,20,5,-84,58,198,-84
-36,3,4151,3387,19,-1,-84,58,198,-84
-21,-15,4161,3384,16,-3,-84,58,198,-84
-43,-15,4119,3389,21,-3,-89,59,205,-89
-50,-13,4121,3387,23,1,-89,59,205,-89
-30,-7,4114,3392,18,0,-89,59,205,-89
-45,1,4154,3391,14,-1,-89,59,205,-89
-46,3,4164,3387,18,2,-89,59,205,-89
-30,-17,4122,3387,14,3,-83,61,201,-83
-40,-18,4150,3384,16,6,-83,61,201,-83
-36,-11,4148,3374,18,3,-83,61,201,-83
-40,-7,4140,3385,20,-1,-83,61,201,-83
-39,-9,4140,3392,19,-1,-83,61,201,-83
-46,3,4153,3374,14,0,-82,58,204,-82
-30,-5,4154,3379,10,1,-82,58,204,-82
-42,-2,4117,3386,13,1,-82,58,204,-82
-29,-11,4138,3378,14,3,-82,58,204,-82
-48,5,4137,3387,14,6,-82,58,204,-82
-35,-5,4125,3376,12,5,-93,61,199,-93
-42,13,4163,3389,14,8,-93,61,199,-93
-35,1,4148,3383,20,6,-93,61,199,-93
-50,-17,4149,3386,18,9,-93,61,199,-93
-21,-17,4151,3385,15,6,-93,61,199,-93
-36,18,4128,3380,19,1,-84,52,210,-84
-26,-7,4147,3389,14,7,-84,52,210,-84
-32,-9,4145,3374,12,2,-84,52,210,-84
-47,-8,4163,3373,19,4,-84,52,210,-84
-21,-13,4133,3381,18,10,-84,52,210,-84
-34,-7,4176,3382,18,10,-84,52,210,-84
-22,-26,4155,3379,15,7,-84,52,210,-84
-58,-7,4135,3384,15,9,-84,52,210,-84
-51,-11,4160,3372,14,5,-84,52,210,-84
-40,-1,4132,3371,11,6,-84,52,210,-84
-44,9,4141,3379,15,3,-84,52,210,-84
-33,-13,4131,3375,22,1,-84,52,210,-84
-30,-13,4165,3384,22,0,-84,52,210,-84
-43,3,4139,3386,16,3,-84,52,210,-84
-31,-4,4154,3372,11,6,-84,52,210,-84
-39,3,4122,3386,19,5,-84,52,210,-84
-38,-5,4141,3391,22,1,-95,53,205,-95
-24,10,4126,3393,16,3,-95,53,205,-95
-36,-4,4122,3391,16,6,-95,53,205,-95
-26,2,4149,3381,21,7,-95,53,205,-95
-29,-14,4138,3372,20,3,-95,53,205,-95
-34,-5,4137,3382,12,-1,-79,63,199,-79
-39,5,4150,3394,9,-2,-79,63,199,-79
-29,-25,4127,3388,13,-1,-79,63,199,-79
-19,8,4162,3385,17,4,-79,63,199,-79
-25,0,4139,3379,19,-2,-79,63,199,-79
-39,-4,4149,3394,17,0,-82,62,196,-82
-31,-14,4154,3383,21,4,-82,62,196,-82
-20,-10,4162,3384,15,6,-82,62,196,-82
-39,-5,4158,3385,8,2,-82,62,196,-82
-31,3,4140,3385,18,1,-82,62,196,-82
-26,5,4159,3381,18,4,-92,62,204,-92
-29,-3,4156,3388,13,8,-92,62,204,-92
-40,-11,4143,3377,10,12,-92,62,204,-92
-32,-4,4131,3375,15,4,-92,62,204,-92
-36,-6,4130,3375,16,1,-92,62,204,-92
-43,-1,4156,3395,15,5,-83,57,199,-83
-25,-12,4154,3391,14,4,-83,57,199,-83
-33,-6,4141,3385,12,0,-83,57,199,-83
-55,-14,4116,3368,16,2,-83,57,199,-83
-52,2,4136,3375,19,0,-83,57,199,-83
-37,3,4163,3386,17,4,-85,55,203,-85
-44,-11,4125,3384,19,5,-85,55,203,-85
-45,-10,4140,3383,17,6,-85,55,203,-85
-47,-3,4132,3382,18,7,-85,55,203,-85
-55,2,4142,3383,18,7,-85,55,203,-85
-39,3,4149,3383,18,0,-87,51,195,-87
-43,-8,4133,3388,15,5,-87,51,195,-87
-47,-2,4142,3382,14,6,-87,51,195,-87
-47,-3,4148,3382,15,6,-87,51,195,-87
-59,-1,4153,3383,21,9,-87,51,195,-87
-44,-12,4174,3389,16,5,-79,59,203,-79
-41,5,4161,3385,16,3,-79,59,203,-79
-37,-10,4132,3383,18,5,-79,59,203,-79
-36,2,4135,3386,16,4,-79,59,203,-79
-54,1,4142,3380,10,5,-79,59,203,-79
-27,-26,4117,3381,17,3,-78,60,208,-78
-29,-18,4120,3383,18,0,-78,60,208,-78
-27,-1,4160,3375,14,6,-78,60,208,-78
-54,3,4186,3383,14,5,-78,60,208,-78
-36,-4,4147,3383,19,7,-77,57,201,-77
-54,-6,4127,3378,17,3,-77,57,201,-77
-29,-14,4130,3374,17,1,-77,57,201,-77
-33,-8,4145,3386,20,0,-77,57,201,-77
-34,-21,4158,3379,18,-4,-77,57,201,-77
-46,-20,4131,3389,17,-4,-77,57,201,-77
-40,-14,4135,3377,17,-4,-77,55,203,-77
-69,-9,4163,3376,19,-4,-77,55,203,-77
-25,-8,4158,3381,19,3,-77,55,203,-77
-19,-19,4162,3382,23,4,-77,55,203,-77
-38,-10,4142,3394,21,-1,-80,58,192,-80
-36,-7,4160,3394,17,-2,-80,58,192,-80
-20,-9,4151,3382,14,0,-80,58,192,-80
-38,-5,4119,3376,14,0,-80,58,192,-80
-20,-24,4135,3379,20,1,-80,58,192,-80
-34,2,4159,3375,21,6,-80,58,192,-80
-34,-8,4154,3386,17,-1,-85,59,203,-85
-21,12,4129,3382,16,2,-85,59,203,-85
-27,-4,4154,3391,20,6,-85,59,203,-85
-37,-4,4144,3384,15,5,-85,59,203,-85
-31,2,4160,3379,16,-1,-85,59,203,-85
-34,1,4136,3384,17,7,-96,54,200,-96
-25,-4,4140,3391,17,6,-96,54,200,-96
-33,0,4121,3380,16,1,-96,54,200,-96
-7,-11,4140,3378,17,1,-96,54,200,-96
-45,-20,4159,3377,19,4,-96,54,200,-96
-25,4,4125,3377,16,4,-91,53,203,-91
-25,-8,4129,3380,20,2,-91,53,203,-91
-44,2,4151,3380,16,5,-91,53,203,-91
-31,-13,4147,3385,14,9,-91,53,203,-91
-32,13,4119,3381,15,14,-91,53,203,-91
-47,-15,4150,3377,17,9,-91,53,203,-91
-30,1,4149,3377,15,8,-91,53,203,-91
-36,1,4140,3378,18,8,-91,53,203,-91
-26,-15,4137,3377,16,12,-91,53,203,-91
-41,-14,4151,3384,12,11,-91,53,203,-91
-35,5,4141,3380,17,8,-91,53,203,-91
-51,-5,4148,3381,15,11,-86,56,198,-86
-48,5,4145,3397,11,12,-86,56,198,-86
-39,0,4144,3393,7,9,-86,56,198,-86
-43,-9,4147,3376,11,12,-86,56,198,-86
-45,2,4172,3378,19,8,-86,56,198,-86
-59,-8,4165,3396,13,7,-86,58,206,-86
-38,-14,4170,3385,12,5,-86,58,206,-86
-46,-14,4128,3375,11,2,-86,58,206,-86
-44,-8,4160,3371,17,4,-86,58,206,-86
-32,0,4151,3374,10,8,-86,58,206,-86
-35,-15,4146,3375,13,0,-89,55,199,-89
-55,2,4153,3374,19,-4,-89,55,199,-89
-37,-9,4147,3374,21,-2,-89,55,199,-89
-39,-21,4147,3386,14,-4,-89,55,199,-89
-31,-3,4172,3369,15,-3,-89,55,199,-89
-36,-17,4162,3373,16,0,-84,56,202,-84
-19,5,4137,3387,19,-3,-84,56,202,-84
-47,1,4125,3382,17,-1,-84,56,202,-84
-36,6,4134,3371,21,-1,-84,56,202,-84
-52,-13,4137,3378,21,2,-84,56,202,-84
-48,-10,4132,3385,15,0,-78,58,200,-78
-40,-5,4128,3387,15,1,-78,58,200,-78
-28,6,4146,3391,17,2,-78,58,200,-78
-35,-11,4135,3401,10,-3,-78,58,200,-78
-30,-3,4171,3389,15,-2,-78,58,200,-78
-39,-28,4140,3390,23,-4,-78,58,204,-78
-33,-1,4127,3379,19,2,-78,58,204,-78
-34,-4,4136,3393,12,6,-78,58,204,-78
-19,-7,4118,3392,12,6,-78,58,204,-78
-44,1,4171,3391,12,3,-78,58,204,-78
-33,4,4156,3387,17,1,-82,56,202,-82
-25,-5,4115,3376,19,0,-82,56,202,-82
-25,5,4135,3389,18,2,-82,56,202,-82
-49,3,4104,3384,18,4,-82,56,202,-82
-40,-23,4120,3377,12,4,-82,56,202,-82
-43,-12,4166,3386,16,5,-84,54,206,-84
-41,-16,4150,3383,13,9,-84,54,206,-84
-42,1,4134,3378,7,10,-84,54,206,-84
-32,-8,4138,3382,16,7,-84,54,206,-84
-32,0,4152,3381,21,7,-84,54,206,-84
-35,-15,4140,3376,14,5,-80,54,206,-80
-41,-16,4141,3375,11,-2,-80,54,206,-80
-34,6,4125,3378,13,0,-80,54,206,-80
-41,5,4150,3380,14,5,-80,54,206,-80
-34,6,4126,3378,20,1,-80,54,206,-80
-31,9,4161,3374,13,-2,-91,57,207,-91
-56,1,4154,3389,14,1,-91,57,207,-91
-38,-12,4120,3385,15,1,-91,57,207,-91
-29,-10,4129,3383,11,-6,-91,57,207,-91
-30,11,4142,3395,10,-3,-91,57,207,-91
-41,-2,4163,3391,19,-1,-80,56,198,-80
-34,12,4169,3389,24,5,-80,56,198,-80
-37,-13,4146,3387,16,7,-80,56,198,-80
-32,1,4122,3381,20,6,-80,56,198,-80
-46,-4,4130,3389,24,-2,-80,56,198,-80
-26,-10,4136,3373,21,2,-87,59,199,-87
-32,7,4133,3387,16,5,-87,59,199,-87
-36,7,4130,3384,18,5,-87,59,199,-87
-33,-12,4131,3381,17,0,-87,59,199,-87
-27,-12,4129,3393,13,-1,-87,59,199,-87
-39,7,4132,3391,14,6,-88,64,202,-88
-44,-23,4139,3386,19,3,-88,64,202,-88
-35,1,4111,3380,14,3,-88,64,202,-88
-36,-5,4143,3390,18,5,-88,64,202,-88
-25,-9,4110,3388,21,1,-88,64,202,-88
-28,13,4147,3384,22,1,-82,52,200,-82
-43,-11,4134,3390,18,0,-82,52,200,-82
-28,-6,4152,3391,18,-2,-82,52,200,-82
-49,-2,4146,3378,17,5,-82,52,200,-82
-45,12,4124,3384,14,9,-82,52,200,-82
-47,-11,4142,3376,18,5,-78,56,196,-78
-32,-27,4147,3378,14,5,-78,56,196,-78
-24,-8,4143,3387,10,7,-78,56,196,-78
-66,-28,4148,3372,11,5,-78,56,196,-78
-45,-3,4123,3371,12,0,-78,56,196,-78
-47,-15,4148,3377,15,5,-88,52,208,-88
-14,-18,4153,3380,14,10,-88,52,208,-88
-20,4,4152,3388,13,9,-88,52,208,-88
-37,-13,4151,3392,13,2,-88,52,208,-88
-30,9,4129,3385,11,-2,-88,52,208,-88
-25,-16,4145,3384,17,2,-88,52,208,-88
-29,-13,4161,3384,15,2,-88,52,208,-88
-27,-2,4161,3380,10,3,-88,52,208,-88
-25,-9,4140,3382,19,3,-88,52,208,-88
-40,5,4127,3383,18,6,-88,52,208,-88
-31,5,4153,3393,18,8,-88,52,208,-88
-44,-16,4134,3383,20,-1,-88,52,208,-88
-36,-3,4133,3390,16,-4,-88,52,208,-88
-42,-16,4114,3384,13,5,-88,52,208,-88
-30,-19,4136,3388,20,8,-88,52,208,-88
-32,-13,4154,3380,17,8,-88,52,208,-88
-29,-5,4137,3381,18,8,-79,47,203,-79
-40,-13,4166,3390,22,5,-79,47,203,-79
-29,-26,4131,3381,17,1,-79,47,203,-79
-34,-10,4136,3378,18,1,-79,47,203,-79
-36,-9,4121,3378,17,-2,-79,47,203,-79
-48,-9,4170,3377,11,3,-88,56,198,-88
-44,-19,4184,3374,6,8,-88,56,198,-88
-44,-14,4149,3372,9,6,-88,56,198,-88
-37,-8,4159,3379,13,1,-88,56,198,-88
-40,-12,4156,3378,17,0,-88,56,198,-88
-53,1,4150,3381,17,6,-94,54,204,-94
-55,-5,4131,3381,15,3,-94,54,204,-94
-27,-20,4138,3389,15,2,-94,54,204,-94
-46,2,4146,3382,16,3,-94,54,204,-94
-36,-8,4147,3364,14,5,-94,54,204,-94
-47,-29,4167,3378,18,2,-94,56,200,-94
-47,-8,4142,3375,13,7,-94,56,200,-94
-37,10,4156,3377,14,6,-94,56,200,-94
-29,-2,4157,3363,17,6,-94,56,200,-94
-46,-2,4125,3371,20,2,-94,56,200,-94
-43,9,4140,3367,14,4,-81,55,195,-81
-47,-5,4162,3374,13,-1,-81,55,195,-81
-39,-10,4170,3370,16,-6,-81,55,195,-81
-33,16,4141,3380,18,-3,-81,55,195,-81
-39,7,4121,3379,18,3,-81,55,195,-81
-47,17,4143,3382,14,6,-80,48,198,-80
-43,-3,4147,3380,16,6,-80,48,198,-80
-42,-16,4127,3380,17,8,-80,48,198,-80
-27,-3,4121,3377,13,3,-80,48,198,-80
-34,18,4146,3373,15,2,-80,48,198,-80
-32,12,4135,3373,18,4,-87,61,197,-87
-32,4,4140,3387,19,3,-87,61,197,-87
-44,-4,4143,3381,13,1,-87,61,197,-87
-37,-5,4153,3378,12,4,-87,61,197,-87
-41,13,4145,3390,14,1,-87,61,197,-87
-17,5,4137,3389,16,3,-82,56,200,-82
-30,-13,4160,3387,20,7,-82,56,200,-82
-46,-9,4103,3379,20,11,-82,56,200,-82
-40,-7,4159,3382,14,10,-82,56,200,-82
-36,-16,4156,3384,17,11,-82,56,200,-82
-17,-6,4129,3384,18,8,-81,55,197,-81
-16,-9,4149,3393,16,2,-81,55,197,-81
-23,-21,4145,3384,17,-5,-81,55,197,-81
-22,-11,4152,3384,19,0,-81,55,197,-81
-25,-4,4153,3398,15,-5,-81,55,197,-81
-35,-1,4121,3381,15,-1,-91,49,193,-91
-24,9,4161,3390,19,0,-91,49,193,-91
-37,2,4158,3397,22,-2,-91,49,193,-91
-41,-7,4154,3381,21,-1,-91,49,193,-91
-24,-14,4141,3376,19,-3,-91,49,193,-91
-35,-2,4117,3381,18,3,-82,54,196,-82
-32,-2,4132,3372,15,4,-82,54,196,-82
-21,-12,4163,3387,19,3,-82,54,196,-82
-36,-13,4156,3371,17,5,-82,54,196,-82
-34,-12,4163,3371,13,7,-85,63,209,-85
-40,6,4139,3377,16,3,-85,63,209,-85
-18,-11,4120,3377,19,3,-85,63,209,-85
-15,-27,4154,3371,17,7,-85,63,209,-85
-29,4,4141,3370,18,3,-85,63,209,-85
-43,-4,4136,3373,13,6,-85,63,209,-85
-49,-9,4131,3377,19,10,-80,52,198,-80
-28,-14,4151,3375,19,5,-80,52,198,-80
-54,-19,4151,3375,18,5,-80,52,198,-80
-37,-23,4138,3378,13,3,-80,52,198,-80
-38,2,4135,3383,12,5,-80,52,198,-80
-34,-1,4153,3371,19,10,-92,54,202,-92
-46,11,4149,3395,16,7,-92,54,202,-92
-49,-12,4158,3380,14,10,-92,54,202,-92
-44,-20,4133,3380,13,5,-92,54,202,-92
-48,-24,4152,3377,13,1,-92,54,202,-92
-52,-5,4144,3373,14,1,-83,57,199,-83
-46,-3,4183,3374,13,5,-83,57,199,-83
-41,8,4126,3374,13,9,-83,57,199,-83
-44,-4,4147,3369,18,3,-83,57,199,-83
-57,-8,4171,3377,17,1,-83,57,199,-83
-53,0,4162,3382,13,-1,-83,57,199,-83
-48,13,4171,3378,15,3,-83,57,199,-83
-53,5,4144,3380,16,9,-83,57,199,-83
-37,-4,4163,3378,16,11,-83,57,199,-83
-60,6,4163,3375,18,13,-83,57,199,-83
-60,12,4158,3379,15,8,-83,57,199,-83
-46,1,4142,3384,17,4,-83,57,199,-83
-45,7,4130,3385,17,1,-83,57,199,-83
-61,-1,4147,3373,19,-3,-83,57,199,-83
-45,-5,4165,3384,14,0,-83,57,199,-83
-34,-14,4120,3386,18,7,-83,57,199,-83
-47,5,4118,3377,14,3,-84,50,202,-84
-38,7,4146,3382,17,1,-84,50,202,-84
-46,-9,4156,3381,19,-3,-84,50,202,-84
-44,-2,4137,3373,14,-3,-84,50,202,-84
-29,-1,4152,3386,12,0,-84,50,202,-84
-50,-30,4151,3370,13,0,-88,56,200,-88
-43,-7,4153,3373,15,3,-88,56,200,-88
-31,-8,4145,3368,16,-1,-88,56,200,-88
-52,2,4151,3369,16,-6,-88,56,200,-88
-43,-7,4106,3379,21,0,-88,56,200,-88
-31,9,4145,3381,22,-1,-84,52,194,-84
-36,2,4134,3386,19,0,-84,52,194,-84
-26,-3,4140,3365,19,3,-84,52,194,-84
-32,-2,4150,3376,16,6,-84,52,194,-84
-37,-10,4157,3383,16,7,-84,52,194,-84
-31,-8,4134,3387,21,7,-82,62,206,-82
-39,-13,4152,3384,19,6,-82,62,206,-82
-30,-6,4158,3382,17,2,-82,62,206,-82
-33,-5,4157,3384,18,2,-82,62,206,-82
-33,-15,4145,3374,19,5,-82,62,206,-82
-32,-14,4125,3375,17,6,-75,55,203,-75
-42,-6,4134,3382,14,5,-75,55,203,-75
-45,12,4127,3375,19,6,-75,55,203,-75
-46,-12,4164,3392,21,1,-75,55,203,-75
-28,1,4130,3391,11,4,-75,55,203,-75
-43,-5,4148,3382,13,3,-81,55,201,-81
-46,-10,4125,3385,12,3,-81,55,201,-81
-42,-9,4153,3387,11,5,-81,55,201,-81
-39,-15,4138,3380,11,6,-81,55,201,-81
-45,-7,4139,3368,19,8,-81,55,201,-81
-58,0,4157,3373,18,6,-81,59,193,-81
-30,-6,4163,3372,12,6,-81,59,193,-81
-42,5,4158,3375,14,0,-81,59,193,-81
-24,-7,4162,3382,14,5,-81,59,193,-81
-41,0,4136,3383,15,4,-81,59,193,-81
-25,-4,4159,3381,16,4,-86,52,200,-86
-27,-8,4149,3375,17,8,-86,52,200,-86
-48,5,4152,3366,19,6,-86,52,200,-86
-37,-10,4098,3383,18,5,-86,52,200,-86
-28,7,4165,3380,19,3,-86,52,200,-86
-39,3,4157,3386,22,1,-84,58,200,-84
-43,-13,4176,3380,18,3,-84,58,200,-84
-36,-5,4161,3373,16,6,-84,58,200,-84
-51,-14,4152,3373,19,3,-84,58,200,-84
-34,-10,4164,3384,18,-2,-84,58,200,-84
-26,4,4131,3377,23,2,-76,54,200,-76
-30,1,4127,3381,19,-3,-76,54,200,-76
-27,10,4132,3377,21,1,-76,54,200,-76
-29,-4,4133,3385,18,0,-76,54,200,-76
-33,11,4133,3380,18,1,-76,54,200,-76
-42,-12,4138,3377,21,7,-83,61,201,-83
-46,-12,4151,3382,14,6,-83,61,201,-83
-30,-20,4134,3373,13,2,-83,61,201,-83
-35,8,4142,3375,10,6,-83,61,201,-83
-35,-7,4146,3374,16,-1,-83,61,201,-83
-26,-5,4167,3373,15,-6,-90,52,202,-90
-30,16,4171,3370,17,-1,-90,52,202,-90
-30,13,4145,3382,11,3,-90,52,202,-90
-25,-16,4116,3381,13,2,-90,52,202,-90
-39,-4,4149,3380,16,4,-90,52,202,-90
-28,-5,4144,3379,13,2,-88,56,202,-88
-48,10,4106,3380,13,2,-88,56,202,-88
-27,1,4151,3378,14,4,-88,56,202,-88
-25,-1,4168,3378,15,0,-88,56,202,-88
-56,-19,4132,3373,12,0,-88,56,202,-88
-36,-16,4143,3375,14,7,-86,60,202,-86
-44,2,4169,3385,13,6,-86,60,202,-86
-44,-9,4137,3390,15,11,-86,60,202,-86
-25,-3,4159,3380,20,7,-86,60,202,-86
-22,5,4144,3381,21,4,-86,60,202,-86
-29,-12,4151,3379,18,4,-80,64,204,-80
-33,-4,4138,3372,10,3,-80,64,204,-80
-44,-6,4133,3374,17,6,-80,64,204,-80
-47,6,4137,3379,19,3,-80,64,204,-80
-38,1,4156,3381,16,2,-80,64,204,-80
-40,-23,4131,3386,16,1,-80,64,204,-80
-42,-20,4129,3380,20,3,-80,64,204,-80
-39,-1,4148,3382,21,5,-80,64,204,-80
-39,-11,4113,3370,15,5,-80,64,204,-80
-43,-1,4128,3374,15,7,-80,64,204,-80
-42,2,4149,3371,15,-2,-80,64,204,-80
-26,-14,4130,3385,10,-1,-80,64,204,-80
-32,-3,4147,3378,11,3,-80,64,204,-80
-40,-14,4145,3372,19,5,-80,64,204,-80
-18,-8,4118,3386,13,4,-80,64,204,-80
-42,-11,4115,3383,12,-2,-80,64,204,-80
-52,-3,4158,3386,15,3,-84,66,202,-84
-48,-14,4143,3387,16,7,-84,66,202,-84
-32,-10,4120,3385,18,4,-84,66,202,-84
-31,-15,4156,3382,23,3,-84,66,202,-84
-47,-7,4137,3374,20,7,-84,66,202,-84
-36,-17,4171,3371,16,5,-76,60,196,-76
-40,-28,4177,3374,13,2,-76,60,196,-76
-40,-14,4113,3364,16,0,-76,60,196,-76
-46,1,4148,3382,17,2,-76,60,196,-76
-48,-5,4156,3393,17,-1,-76,60,196,-76
-38,-10,4131,3378,18,6,-89,49,207,-89
-29,8,4123,3380,22,6,-89,49,207,-89
-44,-13,4153,3389,17,3,-89,49,207,-89
-36,-8,4145,3389,18,4,-89,49,207,-89
-40,3,4100,3386,13,2,-88,62,200,-88
-34,-17,4127,3372,17,2,-88,62,200,-88
-30,6,4138,3374,17,-2,-88,62,200,-88
-39,1,4136,3386,23,5,-88,62,200,-88
-34,6,4143,3384,24,5,-88,62,200,-88
-28,-3,4166,3377,13,2,-88,62,200,-88
-35,-9,4128,3371,19,3,-83,53,207,-83
-20,8,4117,3373,22,7,-83,53,207,-83
-39,-10,4103,3384,19,8,-83,53,207,-83
-31,14,4162,3388,20,3,-83,53,207,-83
-46,15,4156,3389,15,4,-83,53,207,-83
-34,-9,4143,3384,15,10,-75,57,199,-75
-36,13,4133,3380,24,4,-75,57,199,-75
-41,3,4143,3383,23,4,-75,57,199,-75
-49,1,4140,3386,14,3,-75,57,199,-75
-24,6,4159,3384,16,5,-75,57,199,-75
-43,-3,4141,3370,20,6,-81,55,197,-81
-43,-1,4129,3375,19,3,-81,55,197,-81
-32,16,4148,3367,16,8,-81,55,197,-81
-30,-1,4168,3363,21,6,-81,55,197,-81
-42,-1,4140,3371,17,7,-81,55,197,-81
-48,8,4138,3366,17,2,-87,55,199,-87
-25,7,4137,3367,13,5,-87,55,199,-87
-26,3,4119,3374,15,6,-87,55,199,-87
-37,-14,4125,3380,12,1,-87,55,199,-87
-27,4,4152,3385,10,0,-87,55,199,-87
-38,4,4153,3388,12,6,-84,58,204,-84
-45,-10,4141,3375,14,8,-84,58,204,-84
-31,0,4150,3385,12,2,-84,58,204,-84
-30,1,4126,3389,20,6,-84,58,204,-84
-52,1,4148,3386,20,3,-84,58,204,-84
-50,-2,4152,3385,18,5,-83,53,191,-83
-24,9,4138,3374,21,0,-83,53,191,-83
-41,9,4152,3376,14,3,-83,53,191,-83
-30,-7,4142,3356,14,-2,-83,53,191,-83
-33,-15,4153,3364,21,0,-83,53,191,-83
-34,-16,4147,3378,16,5,-87,61,205,-87
-37,-4,4153,3373,13,8,-87,61,205,-87
-45,8,4123,3372,12,11,-87,61,205,-87
-24,-17,4151,3383,17,13,-87,61,205,-87
-36,-21,4143,3379,13,1,-87,61,205,-87
-45,-10,4152,3368,16,-4,-85,61,203,-85
-33,-14,4121,3379,15,-1,-85,61,203,-85
-55,-2,4162,3379,12,3,-85,61,203,-85
-36,-9,4147,3380,9,2,-85,61,203,-85
-45,-14,4158,3375,11,5,-85,61,203,-85
-24,-1,4128,3367,12,1,-77,57,201,-77
-33,-1,4176,3371,15,1,-77,57,201,-77
-49,-7,4133,3380,14,7,-77,57,201,-77
-29,-17,4156,3377,17,2,-77,57,201,-77
-30,-21,4140,3381,16,2,-77,57,201,-77
-39,5,4121,3386,15,7,-85,61,207,-85
-42,4,4160,3377,18,8,-85,61,207,-85
-30,-5,4170,3388,18,-1,-85,61,207,-85
-48,-16,4142,3385,17,-2,-85,61,207,-85
-35,-3,4169,3384,12,5,-85,61,207,-85
-33,-18,4164,3380,11,3,-80,56,202,-80
-45,-15,4140,3373,23,-5,-80,56,202,-80
-54,-19,4128,3371,22,0,-80,56,202,-80
-47,-3,4156,3384,11,1,-80,56,202,-80
-32,4,4140,3386,16,3,-80,56,202,-80
-45,-5,4137,3379,25,-2,-80,56,202,-80
-38,-19,4140,3378,16,1,-80,56,202,-80
-35,-3,4156,3383,14,3,-80,56,202,-80
-30,8,4177,3390,16,3,-80,56,202,-80
-42,-10,4154,3385,18,8,-80,56,202,-80
-27,4,4162,3372,16,9,-80,56,202,-80
-24,-4,4143,3376,19,1,-80,56,202,-80
-37,1,4152,3378,21,-3,-80,56,202,-80
-37,-1,4129,3384,17,-2,-80,56,202,-80
-21,-5,4138,3385,13,2,-80,56,202,-80
-46,10,4146,3383,14,4,-80,56,202,-80
-30,-4,4136,3388,12,3,-88,64,200,-88
-37,9,4139,3357,17,2,-88,64,200,-88
-40,-24,4155,3372,14,4,-88,64,200,-88
-34,-7,4145,3378,15,4,-88,64,200,-88
-41,5,4112,3373,21,1,-88,64,200,-88
-30,0,4136,3382,18,5,-84,56,200,-84
-19,0,4183,3380,20,2,-84,56,200,-84
-14,-3,4141,3378,20,2,-84,56,200,-84
-27,-5,4129,3375,16,3,-84,56,200,-84
-29,-4,4149,3375,11,-1,-84,56,200,-84
-38,8,4156,3388,13,6,-85,57,193,-85
-42,2,4162,3376,22,2,-85,57,193,-85
-40,-3,4114,3377,22,4,-85,57,193,-85
-49,-4,4136,3371,12,4,-85,57,193,-85
-38,4,4139,3386,16,7,-85,57,193,-85
-35,8,4127,3374,17,9,-84,52,202,-84
-41,-11,4159,3382,17,8,-84,52,202,-84
-44,-15,4179,3384,15,6,-84,52,202,-84
-37,1,4147,3380,13,4,-84,52,202,-84
-51,-14,4151,3385,13,6,-84,52,202,-84
-32,5,4153,3392,11,1,-87,55,205,-87
-49,5,4170,3399,17,0,-87,55,205,-87
-34,13,4141,3393,18,7,-87,55,205,-87
-41,-18,4161,3387,10,8,-87,55,205,-87
-43,-8,4116,3400,13,5,-87,55,205,-87
-36,-5,4122,3380,16,12,-89,57,201,-89
-49,1,4127,3384,14,7,-89,57,201,-89
-33,-7,4114,3382,14,6,-89,57,201,-89
-42,0,4141,3377,15,10,-89,57,201,-89
-47,5,4148,3372,17,7,-89,57,201,-89
-43,-9,4143,3389,14,5,-84,60,202,-84
-25,-2,4124,3381,14,0,-84,60,202,-84
-36,-11,4145,3384,15,1,-84,60,202,-84
-36,3,4141,3375,21,-1,-84,60,202,-84
-41,-14,4139,3375,20,0,-84,60,202,-84
-30,-9,4118,3375,15,-1,-85,57,205,-85
-45,-5,4156,3374,22,0,-85,57,205,-85
-45,-21,4162,3384,21,2,-85,57,205,-85
-33,0,4143,3380,22,2,-85,57,205,-85
-31,-12,4157,3383,20,4,-85,60,200,-85
-41,-19,4134,3385,19,4,-84,60,200,-84
-14,-20,4162,3375,19,-1,-84,60,200,-84
-27,-11,4143,3371,17,-3,-84,60,200,-84
-22,-8,4155,3378,16,-2,-84,60,200,-84
-33,-21,4155,3375,21,-3,-84,60,200,-84
-20,-16,4099,3383,25,-8,-81,53,203,-81
-26,1,4137,3383,20,-4,-81,53,203,-81
-20,5,4132,3377,19,4,-81,53,203,-81
-28,-13,4149,3374,20,4,-81,53,203,-81
-38,-11,4137,3376,20,5,-81,53,203,-81
-39,-2,4113,3369,21,2,-92,50,206,-92
-46,-5,4120,3378,22,-5,-92,50,206,-92
-33,0,4148,3369,19,3,-92,50,206,-92
-36,-9,4126,3378,11,7,-92,50,206,-92
-27,-9,4158,3379,11,8,-92,50,206,-92
-26,3,4132,3378,13,6,-84,54,208,-84
-22,-7,4116,3384,15,2,-84,54,208,-84
-35,-17,4125,3385,15,5,-84,54,208,-84
-24,7,4137,3389,16,6,-84,54,208,-84
-59,-1,4139,3394,20,1,-84,54,208,-84
-41,-13,4161,3378,16,1,-87,59,193,-87
-31,-10,4150,3378,13,1,-87,59,193,-87
-38,-24,4144,3379,12,4,-87,59,193,-87
-27,3,4156,3368,16,5,-87,59,193,-87
-31,-1,4151,3384,16,3,-87,59,193,-87
-62,-19,4138,3382,17,6,-86,60,210,-86
-32,12,4150,3371,16,10,-86,60,210,-86
-45,1,4156,3374,14,11,-86,60,210,-86
-39,-14,4136,3378,18,6,-86,60,210,-86
-35,10,4138,3380,22,9,-86,60,210,-86
-44,-2,4141,3385,22,5,-78,58,208,-78
-57,-8,4145,3375,14,11,-78,58,208,-78
-43,6,4145,3368,9,7,-78,58,208,-78
-23,6,4148,3381,10,4,-78,58,208,-78
-48,-1,4140,3376,13,4,-78,58,208,-78
-21,-5,4180,3385,17,2,-90,62,198,-90
-36,-12,4156,3386,20,3,-90,62,198,-90
-53,-11,4182,3382,20,-1,-90,62,198,-90
-45,-2,4162,3375,16,3,-90,62,198,-90
-38,-2,4123,3384,14,0,-90,62,198,-90
-18,-8,4176,3386,18,2,-90,62,198,-90
-39,9,4110,3380,23,-1,-90,62,198,-90
-44,-13,4119,3369,20,1,-90,62,198,-90
-47,21,4139,3367,20,1,-90,62,198,-90
-22,11,4142,3384,23,-2,-90,62,198,-90
-40,-2,4149,3380,18,-1,-90,62,198,-90
-20,6,4160,3381,22,-1,-78,66,198,-78
-42,9,4156,3368,23,5,-78,66,198,-78
-39,13,4150,3376,18,5,-78,66,198,-78
-18,3,4162,3383,14,4,-78,66,198,-78
-28,8,4152,3383,16,5,-78,66,198,-78
-40,5,4161,3367,17,0,-87,57,201,-87
-25,-8,4132,3389,11,0,-87,57,201,-87
-32,-27,4163,3388,16,2,-87,57,201,-87
-33,-6,4154,3382,19,5,-87,57,201,-87
-29,-2,4149,3386,18,4,-87,57,201,-87
-39,7,4151,3381,19,-2,-86,56,204,-86
-41,13,4129,3381,14,1,-86,56,204,-86
-43,-4,4163,3392,16,3,-86,56,204,-86
-31,-4,4117,3384,14,6,-86,56,204,-86
-29,12,4162,3381,10,8,-86,56,204,-86
-26,-8,4152,3382,19,7,-90,54,196,-90
-37,-31,4138,3370,17,4,-90,54,196,-90
-40,-13,4131,3370,16,12,-90,54,196,-90
-40,8,4155,3372,16,3,-90,54,196,-90
-41,-5,4156,3375,12,5,-90,54,196,-90
-34,-5,4166,3382,16,5,-79,55,207,-79
-30,0,4146,3379,14,2,-79,55,207,-79
-33,-9,4148,3385,10,8,-79,55,207,-79
-40,-3,4144,3376,15,7,-79,55,207,-79
-38,-12,4132,3381,14,9,-79,55,207,-79
-62,-17,4134,3387,15,8,-81,53,193,-81
-33,0,4168,3388,18,8,-81,53,193,-81
-37,-18,4129,3379,18,4,-81,53,193,-81
-48,-12,4138,3381,18,8,-81,53,193,-81
-56,-14,4135,3370,14,6,-81,53,193,-81
-40,-4,4130,3375,7,0,-82,58,200,-82
-43,-3,4134,3370,13,2,-82,58,200,-82
-46,-2,4169,3374,18,4,-82,58,200,-82
-38,-2,4160,3379,18,4,-82,58,200,-82
-46,-1,4149,3374,14,-1,-82,58,200,-82
-46,0,4132,3375,19,1,-85,57,199,-85
-47,2,4130,3370,20,2,-85,57,199,-85
-29,-8,4152,3373,12,5,-85,57,199,-85
-28,-13,4152,3378,14,5,-85,57,199,-85
-42,-25,4144,3365,20,-2,-85,57,199,-85
-34,-2,4170,3380,18,2,-76,58,206,-76
-50,-17,4144,3385,13,3,-76,58,206,-76
-14,2,4124,3383,15,4,-76,58,206,-76
-28,-9,4156,3379,18,5,-76,58,206,-76
-35,-2,4165,3373,17,5,-76,58,206,-76
-24,0,4165,3368,17,1,-81,61,203,-81
-32,-6,4136,3384,14,7,-81,61,203,-81
-42,17,4170,3377,13,4,-81,61,203,-81
-47,-14,4146,3371,22,-4,-81,61,203,-81
-31,-8,4125,3383,22,1,-81,61,203,-81
-57,-3,4118,3389,20,4,-86,58,198,-86
-34,-10,4122,3377,21,4,-86,58,198,-86
-20,1,4114,3383,19,1,-86,58,198,-86
-41,5,4133,3386,18,2,-86,58,198,-86
-38,-2,4135,3382,18,4,-70,50,200,-70
-47,-14,4137,3376,16,3,-70,50,200,-70
-47,1,4153,3377,18,7,-70,50,200,-70
-50,-5,4152,3374,13,6,-70,50,200,-70
-34,2,4167,3371,15,-1,-70,50,200,-70
-27,-21,4141,3363,14,-5,-70,50,200,-70
-48,-9,4140,3381,13,1,-86,52,198,-86
-34,-14,4131,3392,14,8,-86,52,198,-86
-42,13,4135,3385,10,10,-86,52,198,-86
-36,-7,4159,3375,15,8,-86,52,198,-86
-40,-5,4131,3378,16,10,-86,52,198,-86
-37,-13,4138,3375,16,7,-83,53,201,-83
-20,6,4139,3384,14,1,-83,53,201,-83
-30,-15,4136,3380,15,1,-83,53,201,-83
-37,15,4149,3383,12,4,-83,53,201,-83
-31,-2,4174,3382,17,3,-83,53,201,-83
-37,0,4136,3385,20,3,-79,57,197,-79
-37,0,4146,3387,15,2,-79,57,197,-79
-25,-27,4140,3378,14,3,-79,57,197,-79
-46,-7,4163,3372,22,-1,-79,57,197,-79
-34,-7,4152,3379,28,-2,-79,57,197,-79
-47,-6,4167,3388,20,1,-84,56,206,-84
-53,19,4116,3385,14,-3,-84,56,206,-84
-38,-12,4162,3388,20,0,-84,56,206,-84
-42,5,4150,3380,23,-2,-84,56,206,-84
-44,-12,4129,3388,18,-9,-84,56,206,-84
-42,13,4163,3379,17,-7,-84,56,206,-84
-14,-4,4165,3377,22,-5,-84,56,206,-84
-28,4,4147,3386,21,-3,-84,56,206,-84
-22,7,4121,3381,19,-2,-84,56,206,-84
-38,9,4147,3376,20,-3,-84,56,206,-84
-27,-10,4151,3369,17,-3,-78,62,208,-78
-43,-1,4150,3380,16,3,-78,62,208,-78
-26,1,4135,3384,22,3,-78,62,208,-78
-44,2,4127,3376,15,7,-78,62,208,-78
-43,8,4146,3387,20,3,-78,62,208,-78
-57,0,4138,3375,25,1,-78,62,208,-78
-54,-7,4149,3383,17,7,-81,57,199,-81
-29,-16,4161,3374,14,11,-81,57,199,-81
-43,-3,4124,3380,14,9,-81,57,199,-81
-32,-2,4137,3384,12,7,-81,57,199,-81
-43,-9,4153,3386,14,6,-81,57,199,-81
-47,-10,4138,3379,12,6,-88,56,208,-88
-47,-19,4145,3379,11,5,-88,56,208,-88
-61,2,4128,3383,14,2,-88,56,208,-88
-51,-11,4130,3391,12,4,-88,56,208,-88
-30,-15,4125,3393,14,4,-88,56,208,-88
-50,-14,4146,3374,9,5,-91,61,201,-91
-26,-4,4152,3375,10,9,-91,61,201,-91
-46,-2,4159,3385,13,5,-91,61,201,-91
-37,-4,4175,3383,9,3,-91,61,201,-91
-42,-3,4138,3377,16,3,-91,61,201,-91
-37,-7,4168,3370,20,5,-82,58,206,-82
-41,-17,4118,3382,11,3,-82,58,206,-82
-43,-11,4162,3385,13,0,-82,58,206,-82
-46,-7,4132,3369,12,6,-82,58,206,-82
-58,-6,4152,3366,15,6,-82,58,204,-82
-53,-2,4166,3383,15,1,-82,58,204,-82
-36,-19,4166,3387,15,5,-82,58,204,-82
-53,-12,4132,3384,20,-2,-82,58,204,-82
-37,-11,4126,3385,18,2,-82,58,204,-82
-36,8,4159,3380,19,-1,-82,58,204,-82
-30,-11,4128,3371,15,-3,-86,52,200,-86
-37,-11,4131,3380,17,1,-86,52,200,-86
-37,-5,4147,3373,21,-3,-86,52,200,-86
-44,7,4142,3385,20,-2,-86,52,200,-86
-31,-20,4144,3379,21,-2,-86,52,200,-86
-31,1,4146,3373,18,-2,-79,59,203,-79
-45,-1,4139,3378,15,-5,-79,59,203,-79
-37,-11,4150,3377,19,-3,-79,59,203,-79
-33,-10,4157,3371,17,2,-79,59,203,-79
-29,5,4142,3392,16,2,-79,59,203,-79
-9,-7,4170,3389,20,-6,-84,60,198,-84
-45,4,4158,3384,20,0,-84,60,198,-84
-11,-2,4147,3389,19,8,-84,60,198,-84
-37,-19,4165,3368,15,3,-84,60,198,-84
-50,-13,4123,3362,15,5,-84,60,198,-84
-28,2,4160,3379,18,8,-81,51,205,-81
-49,-7,4166,3373,19,10,-81,51,205,-81
-38,-8,4153,3380,18,13,-81,51,205,-81
-33,-10,4134,3395,13,5,-81,51,205,-81
-35,-7,4121,3385,21,7,-81,51,205,-81
-34,-18,4130,3379,20,2,-88,54,206,-88
-43,-21,4116,3384,14,3,-88,54,206,-88
-27,-5,4150,3388,13,-1,-88,54,206,-88
-40,0,4163,3373,13,3,-88,54,206,-88
-43,7,4161,3379,15,10,-88,54,206,-88
-43,-5,4140,3380,14,5,-86,56,206,-86
-30,9,4139,3383,12,8,-86,56,206,-86
-18,-5,4164,3389,13,9,-86,56,206,-86
-36,1,4150,3391,16,6,-86,56,206,-86
-16,5,4132,3381,17,8,-86,56,206,-86
-34,-2,4163,3387,12,4,-85,59,197,-85
-40,2,4157,3383,15,5,-85,59,197,-85
-36,-15,4135,3379,20,17,-85,59,197,-85
-32,0,4147,3370,10,13,-85,59,197,-85
-48,-7,4127,3393,14,6,-85,59,197,-85
-39,5,4131,3387,16,2,-76,54,202,-76
-24,-2,4151,3383,10,5,-76,54,202,-76
-45,-1,4159,3387,19,10,-76,54,202,-76
-26,-17,4142,3389,22,9,-76,54,202,-76
-27,14,4165,3387,16,3,-76,54,202,-76
-22,-6,4138,3396,16,3,-81,59,209,-81
-50,-3,4147,3388,23,5,-81,59,209,-81
-35,-16,4149,3377,15,5,-81,59,209,-81
-36,-3,4150,3369,18,2,-81,59,209,-81
-43,13,4102,3371,18,-1,-81,59,209,-81
-43,5,4139,3379,17,-1,-85,55,207,-85
-40,-5,4144,3370,19,-1,-85,55,207,-85
-43,-3,4127,3369,10,0,-85,55,207,-85
-30,-1,4131,3379,11,7,-85,55,207,-85
-35,14,4151,3383,16,8,-85,55,207,-85
-26,-3,4164,3378,16,4,-85,55,207,-85
-25,10,4142,3378,15,3,-85,55,207,-85
-44,-7,4170,3380,20,8,-85,55,207,-85
-40,-24,4176,3377,20,3,-85,55,207,-85
-26,-3,4154,3370,14,0,-85,55,207,-85
-30,-12,4158,3376,14,3,-85,55,207,-85
-42,10,4152,3381,13,8,-85,55,207,-85
-30,-4,4117,3376,13,4,-85,55,207,-85
-44,8,4134,3372,13,7,-85,55,207,-85
-51,4,4136,3385,15,4,-85,55,207,-85
-31,10,4126,3393,20,5,-85,55,207,-85
-44,9,4165,3381,17,9,-88,56,198,-88
-31,1,4164,3383,10,9,-88,56,198,-88
-16,-23,4163,3383,13,9,-88,56,198,-88
-43,-16,4154,3380,18,11,-88,56,198,-88
-48,-6,4149,3374,20,8,-88,56,198,-88
-36,18,4125,3374,19,6,-84,64,206,-84
-41,-15,4148,3378,14,5,-84,64,206,-84
-41,-12,4143,3377,9,8,-84,64,206,-84
-47,-22,4138,3377,7,4,-84,64,206,-84
-44,-7,4152,3374,21,4,-84,64,206,-84
-35,-8,4117,3384,16,1,-87,55,199,-87
-32,-18,4127,3382,12,4,-87,55,199,-87
-34,-6,4171,3379,14,9,-87,55,199,-87
-33,-16,4164,3365,15,-1,-87,55,199,-87
-28,-22,4167,3367,21,5,-87,55,199,-87
-36,-27,4150,3382,19,11,-83,57,199,-83
-42,-18,4126,3387,19,7,-83,57,199,-83
-30,-29,4166,3375,17,5,-83,57,199,-83
-38,-24,4119,3380,17,-1,-83,57,199,-83
-41,-35,4120,3374,18,1,-83,57,199,-83
-58,-14,4135,3381,15,2,-89,59,201,-89
-49,-31,4146,3375,9,6,-89,59,201,-89
-53,-28,4121,3384,11,1,-89,59,201,-89
-57,-27,4146,3381,9,4,-89,59,201,-89
-55,-8,4158,3374,9,6,-89,59,201,-89
-49,-21,4133,3382,15,13,-95,55,205,-95
-60,-18,4162,3386,11,10,-95,55,205,-95
-52,-2,4148,3388,11,7,-95,55,205,-95
-41,-10,4166,3376,13,2,-95,55,205,-95
-55,-21,4150,3391,17,5,-95,55,205,-95
-51,-8,4129,3384,14,4,-89,51,201,-89
-42,-14,4151,3382,14,5,-89,51,201,-89
-41,-27,4143,3384,13,2,-89,51,201,-89
-58,-11,4150,3376,15,2,-89,51,201,-89
-57,-18,4148,3385,17,-1,-89,51,201,-89
-32,-3,4102,3372,16,1,-78,56,196,-78
-51,-31,4129,3380,17,3,-78,56,196,-78
-48,-11,4145,3375,13,4,-78,56,196,-78
-47,-8,4169,3365,19,0,-78,56,196,-78
-46,0,4150,3374,17,5,-78,56,196,-78
-37,0,4152,3372,12,2,-87,63,201,-87
-49,-17,4145,3386,14,3,-87,63,201,-87
-52,-8,4185,3383,18,1,-87,63,201,-87
-52,9,4148,3386,23,0,-87,63,201,-87
-29,0,4126,3377,23,3,-87,63,201,-87
-49,-6,4137,3379,19,1,-80,58,196,-80
-31,1,4111,3379,21,2,-80,58,196,-80
-39,-15,4126,3375,18,6,-80,58,196,-80
-45,2,4131,3382,15,4,-80,58,196,-80
-45,14,4136,3385,17,2,-80,58,196,-80
-43,5,4135,3386,22,4,-89,49,203,-89
-45,-12,4150,3376,24,5,-89,49,203,-89
-50,9,4146,3375,16,-1,-89,49,203,-89
-34,7,4146,3375,12,-5,-89,49,203,-89
-23,-2,4137,3375,17,-3,-89,49,203,-89
-39,10,4143,3366,23,0,-91,57,201,-91
-35,18,4138,3368,14,2,-91,57,201,-91
-29,13,4153,3381,17,1,-91,57,201,-91
-52,18,4135,3390,15,3,-91,57,201,-91
-33,12,4155,3378,12,3,-91,57,201,-91
-44,17,4155,3378,11,3,-88,60,196,-88
-22,-5,4153,3364,14,5,-88,60,196,-88
-37,17,4134,3358,14,4,-88,60,196,-88
-33,13,4133,3378,15,6,-88,60,196,-88
-29,10,4124,3382,19,6,-88,60,196,-88
-21,1,4142,3379,16,4,-80,58,208,-80
-30,-4,4160,3367,14,0,-80,58,208,-80
-35,-4,4127,3381,13,6,-80,58,208,-80
-29,1,4116,3389,14,9,-80,58,208,-80
-29,14,4119,3389,17,9,-80,58,208,-80
-30,10,4187,3383,17,2,-93,57,207,-93
-34,4,4140,3386,15,2,-93,57,207,-93
-34,-7,4138,3384,18,7,-93,57,207,-93
-30,13,4112,3380,24,10,-93,57,207,-93
-36,4,4124,3370,21,6,-93,57,207,-93
-41,-16,4161,3370,17,1,-89,53,201,-89
-46,-9,4119,3385,9,4,-89,53,201,-89
-37,-10,4151,3380,9,2,-89,53,201,-89
-34,-21,4137,3388,16,2,-89,53,201,-89
-36,-1,4138,3382,18,-1,-89,53,201,-89
-28,-20,4161,3389,13,4,-89,53,201,-89
-45,-2,4138,3394,15,6,-89,53,201,-89
-26,-22,4145,3389,16,5,-89,53,201,-89
-46,-27,4136,3375,19,6,-89,53,201,-89
-36,-5,4145,3376,19,2,-89,53,201,-89
-48,-21,4140,3384,15,8,-89,53,201,-89
-39,-6,4110,3384,10,3,-79,53,199,-79
-49,-28,4168,3377,11,2,-79,53,199,-79
-61,-22,4136,3388,9,11,-79,53,199,-79
-48,-18,4134,3373,14,17,-79,53,199,-79
-43,-20,4151,3370,13,4,-79,53,199,-79
-59,-18,4142,3372,12,4,-85,59,207,-85
-40,-31,4172,3389,16,6,-85,59,207,-85
-33,-16,4146,3364,15,1,-85,59,207,-85
-36,-25,4159,3377,19,0,-85,59,207,-85
-26,-25,4156,3377,23,-1,-85,59,207,-85
-42,0,4208,3380,16,5,-83,57,205,-83
-30,-3,4122,3380,17,-1,-83,57,205,-83
-34,-28,4159,3389,12,-1,-83,57,205,-83
-27,-10,4148,3374,8,1,-83,57,205,-83
-27,1,4146,3375,11,0,-83,57,205,-83
-45,2,4124,3377,18,6,-88,52,204,-88
-29,0,4165,3371,18,3,-88,52,204,-88
-31,-3,4121,3385,16,-2,-88,52,204,-88
-34,-10,4149,3383,21,2,-88,52,204,-88
-39,21,4164,3379,23,2,-88,52,204,-88
-25,11,4136,3371,18,0,-77,59,197,-77
-38,-6,4133,3378,20,-2,-77,59,197,-77
-45,3,4143,3382,23,2,-77,59,197,-77
-48,29,4120,3376,22,2,-77,59,197,-77
-27,19,4143,3379,19,5,-77,59,197,-77
-41,3,4129,3374,18,2,-82,50,200,-82
-49,25,4113,3390,20,1,-82,50,200,-82
-29,21,4161,3388,17,1,-82,50,200,-82
-53,25,4146,3382,14,2,-82,50,200,-82
-35,0,4147,3382,18,2,-82,50,200,-82
-40,19,4146,3380,16,4,-84,54,198,-84
-12,17,4157,3374,14,5,-84,54,198,-84
-35,29,4148,3380,13,4,-84,54,198,-84
-23,13,4164,3380,11,2,-84,54,198,-84
-25,23,4170,3379,15,0,-84,54,198,-84
-39,-3,4142,3372,16,4,-88,56,202,-88
-39,5,4167,3372,17,7,-88,56,202,-88
-33,10,4102,3387,13,1,-88,56,202,-88
-27,19,4135,3380,11,2,-88,56,202,-88
-42,11,4158,3369,16,9,-88,56,202,-88
-40,22,4146,3379,15,8,-79,63,199,-79
-40,3,4142,3383,19,6,-79,63,199,-79
-30,10,4152,3377,19,4,-79,63,199,-79
-17,1,4137,3392,15,4,-79,63,199,-79
-37,9,4149,3376,18,9,-79,63,199,-79
-26,11,4175,3382,20,5,-85,61,197,-85
-49,7,4167,3381,22,3,-85,61,197,-85
-24,3,4148,3380,18,11,-85,61,197,-85
-32,5,4124,3379,22,5,-85,61,197,-85
-40,2,4152,3384,23,3,-85,61,197,-85
-28,-1,4103,3381,23,1,-80,58,202,-80
-28,6,4111,3374,21,-2,-80,58,202,-80
-35,-18,4117,3381,21,-4,-80,58,202,-80
-25,10,4132,3383,14,1,-80,58,202,-80
-39,-13,4166,3368,11,0,-80,58,202,-80
-44,-18,4148,3384,16,4,-79,59,199,-79
-44,-25,4166,3376,23,7,-79,59,199,-79
-35,-16,4144,3377,16,4,-79,59,199,-79
-32,-26,4141,3385,14,0,-79,59,199,-79
-54,-20,4152,3381,13,3,-79,59,199,-79
-46,-32,4124,3369,15,1,-83,57,197,-83
-33,-26,4163,3377,16,-2,-83,57,197,-83
-49,-27,4119,3387,14,-1,-83,57,197,-83
-39,-23,4139,3379,15,3,-83,57,197,-83
-28,-25,4141,3376,12,2,-83,57,197,-83
-58,-43,4125,3369,14,3,-93,57,211,-93
-41,-20,4139,3374,15,5,-93,57,211,-93
-34,-38,4167,3378,17,7,-93,57,211,-93
-33,-49,4172,3377,16,3,-93,57,211,-93
-43,-31,4165,3381,12,2,-93,57,211,-93
-34,-5,4165,3377,14,6,-84,50,202,-84
-32,-19,4153,3380,13,7,-84,50,202,-84
-31,-26,4162,3396,16,6,-84,50,202,-84
-41,-19,4138,3385,16,0,-84,50,202,-84
-46,-19,4135,3372,18,5,-84,50,202,-84
-44,-1,4141,3371,14,5,-85,63,203,-85
-36,-19,4129,3360,16,-2,-85,63,203,-85
-40,-9,4141,3368,18,5,-85,63,203,-85
-38,-14,4140,3373,14,8,-85,63,203,-85
-51,-10,4151,3382,15,6,-85,63,203,-85
-36,14,4155,3385,16,5,-85,63,203,-85
-39,-3,4133,3377,15,5,-85,63,203,-85
-30,4,4155,3370,15,2,-85,63,203,-85
-42,28,4162,3380,14,0,-85,63,203,-85
-65,-5,4133,3383,17,6,-85,63,203,-85
-43,1,4175,3375,19,7,-85,63,203,-85
-36,8,4122,3386,21,3,-84,62,196,-84
-48,9,4157,3389,20,2,-84,62,196,-84
-47,29,4132,3379,14,6,-84,62,196,-84
-53,14,4139,3373,12,1,-84,62,196,-84
-58,29,4149,3369,20,6,-84,62,196,-84
-45,3,4143,3365,19,4,-82,52,200,-82
-44,-5,4129,3380,12,3,-82,52,200,-82
-26,5,4166,3375,13,4,-82,52,200,-82
-45,9,4146,3384,18,6,-82,52,200,-82
-37,16,4165,3385,18,5,-82,52,200,-82
-34,20,4152,3377,16,4,-91,55,193,-91
-54,19,4126,3372,14,9,-91,55,193,-91
-32,0,4161,3373,17,3,-91,55,193,-91
-29,16,4140,3378,15,-3,-91,55,193,-91
-45,-3,4125,3383,14,-6,-91,55,193,-91
-20,13,4157,3376,15,-4,-88,50,204,-88
-40,2,4171,3388,13,0,-88,50,204,-88
-31,17,4141,3377,16,-1,-88,50,204,-88
-31,1,4140,3371,18,2,-88,50,204,-88
-26,6,4146,3379,20,6,-89,59,211,-89
-30,1,4149,3379,24,4,-89,59,211,-89
-35,-8,4147,3374,20,0,-89,59,211,-89
-36,8,4115,3370,19,0,-89,59,211,-89
-17,-3,4143,3385,15,-1,-89,59,211,-89
-24,0,4161,3371,16,-5,-89,59,211,-89
-20,-7,4153,3368,22,-5,-88,56,200,-88
-31,3,4157,3375,20,-2,-88,56,200,-88
-29,-21,4145,3382,19,3,-88,56,200,-88
-6,-7,4154,3384,20,5,-88,56,200,-88
-32,-32,4147,3378,15,6,-88,56,200,-88
-28,-18,4128,3383,14,-5,-83,59,201,-83
-27,-16,4111,3385,17,-7,-83,59,201,-83
-32,-25,4118,3369,13,-5,-83,59,201,-83
-11,-2,4122,3368,13,1,-83,59,201,-83
-36,-11,4121,3379,16,2,-83,59,201,-83
-31,-13,4144,3384,9,3,-87,55,199,-87
-22,-13,4152,3375,12,3,-87,55,199,-87
-46,1,4165,3382,10,3,-87,55,199,-87
-45,-31,4138,3382,17,4,-87,55,199,-87
-14,-21,4152,3378,23,5,-87,55,199,-87
-38,-10,4160,3366,13,9,-83,53,203,-83
-32,-10,4133,3374,7,10,-83,53,203,-83
-36,-16,4147,3378,12,9,-83,53,203,-83
-63,-13,4164,3366,16,10,-83,53,203,-83
-43,-19,4142,3365,9,2,-83,53,203,-83
-45,-13,4158,3367,11,7,-92,50,202,-92
-35,-17,4146,3367,16,9,-92,50,202,-92
-69,-22,4110,3380,11,10,-92,50,202,-92
-58,-15,4147,3383,9,9,-92,50,202,-92
-49,-2,4127,3369,14,12,-92,50,202,-92
-42,-21,4166,3366,14,9,-91,61,203,-91
-62,-17,4197,3372,12,8,-91,61,203,-91
-73,-20,4140,3371,5,11,-91,61,203,-91
-48,-10,4164,3375,12,7,-91,61,203,-91
-56,-8,4178,3380,12,5,-91,61,203,-91
-55,-11,4147,3372,13,7,-88,60,204,-88
-51,-4,4154,3376,18,3,-88,60,204,-88
-55,-14,4142,3375,19,3,-88,60,204,-88
-51,-3,4169,3383,13,1,-88,60,204,-88
-56,-19,4165,3385,12,2,-88,60,204,-88
-48,-7,4132,3383,18,3,-85,59,197,-85
-39,-16,4133,3389,24,1,-85,59,197,-85
-48,-12,4143,3366,21,0,-85,59,197,-85
-48,-13,4136,3369,19,2,-85,59,197,-85
-57,0,4169,3381,14,0,-85,59,197,-85
-50,7,4149,3377,23,-3,-81,65,201,-81
-54,13,4164,3383,23,2,-81,65,201,-81
-55,12,4169,3383,22,-1,-81,65,201,-81
-53,5,4128,3375,22,-2,-81,65,201,-81
-42,-2,4163,3378,20,-4,-81,65,201,-81
-40,2,4144,3379,13,-5,-83,59,197,-83
-40,-3,4122,3385,19,-1,-83,59,197,-83
-37,-3,4156,3372,17,-4,-83,59,197,-83
-38,15,4132,3382,15,-7,-83,59,197,-83
-40,2,4140,3369,21,-8,-83,59,197,-83
-18,4,4124,3381,18,0,-89,57,195,-89
-27,10,4137,3369,22,0,-89,57,195,-89
-44,4,4160,3377,17,-7,-89,57,195,-89
-12,9,4157,3378,18,-3,-89,57,195,-89
-16,7,4133,3385,17,-6,-89,57,195,-89
-5,-12,4161,3396,14,-5,-89,57,195,-89
-18,8,4117,3375,17,-6,-89,57,195,-89
-21,-15,4151,3375,19,1,-89,57,195,-89
-43,8,4146,3366,19,2,-89,57,195,-89
-15,7,4153,3378,19,5,-89,57,195,-89
-12,-16,4152,3379,19,2,-89,57,195,-89
-12,0,4161,3383,20,3,-91,57,201,-91
-19,-6,4172,3377,20,6,-91,57,201,-91
-20,-6,4124,3385,16,10,-91,57,201,-91
-35,4,4142,3376,14,3,-91,57,201,-91
-7,-4,4170,3382,14,2,-91,57,201,-91
-18,2,4154,3383,17,5,-86,64,210,-86
-27,1,4151,3383,13,1,-86,64,210,-86
-33,-12,4155,3375,14,9,-86,64,210,-86
-14,-8,4142,3383,21,8,-86,64,210,-86
-32,-10,4164,3386,18,5,-86,64,210,-86
-21,8,4142,3391,13,3,-79,57,199,-79
-29,-1,4133,3373,12,9,-79,57,199,-79
-44,5,4136,3373,10,7,-79,57,199,-79
-44,-6,4169,3373,14,10,-79,57,199,-79
-26,8,4127,3371,12,8,-79,57,199,-79
-24,-7,4127,3373,11,8,-83,61,209,-83
-19,2,4145,3391,16,9,-83,61,209,-83
-37,0,4156,3386,11,4,-83,61,209,-83
-33,-34,4167,3374,10,4,-83,61,209,-83
-51,1,4147,3386,15,8,-83,61,209,-83
-42,-21,4107,3377,14,5,-89,53,201,-89
-47,-1,4114,3376,14,5,-89,53,201,-89
-23,-13,4180,3381,18,4,-89,53,201,-89
-35,6,4159,3374,16,3,-89,53,201,-89
-35,14,4149,3369,15,2,-89,54,201,-89
-42,-13,4160,3380,18,8,-84,54,208,-84
-36,-22,4161,3382,16,10,-84,54,208,-84
-36,-25,4132,3376,11,4,-84,54,208,-84
-52,-11,4158,3376,15,4,-84,54,208,-84
-59,-15,4132,3373,20,4,-84,54,208,-84
-42,-9,4156,3381,18,4,-83,53,201,-83
-37,-1,4125,3383,16,4,-83,53,201,-83
-51,-17,4168,3378,21,2,-83,53,201,-83
-54,-8,4147,3388,21,-2,-83,53,201,-83
-43,-17,4132,3393,21,3,-83,53,201,-83
-56,-7,4146,3385,18,5,-88,58,198,-88
-42,-11,4148,3376,19,8,-88,58,198,-88
-43,-4,4148,3372,17,5,-88,58,198,-88
-61,-2,4140,3369,17,4,-88,58,198,-88
-60,-14,4135,3389,19,8,-88,58,198,-88
-45,-1,4165,3380,15,6,-84,62,200,-84
-54,-14,4129,3380,16,2,-84,62,200,-84
-51,-14,4148,3381,20,1,-84,62,200,-84
-48,-9,4124,3379,16,4,-84,62,200,-84
-54,-35,4146,3379,12,-3,-84,62,200,-84
-45,-15,4170,3365,16,-1,-84,52,198,-84
-39,-1,4130,3366,15,2,-84,52,198,-84
-38,-18,4142,3366,17,0,-84,52,198,-84
-27,-6,4164,3365,18,0,-84,52,198,-84
-27,-12,4135,3372,17,-2,-84,52,198,-84
-34,-6,4149,3384,20,-1,-92,62,202,-92
-50,-4,4156,3363,20,4,-92,62,202,-92
-36,-20,4151,3384,19,5,-92,62,202,-92
-37,-23,4155,3382,21,7,-92,62,202,-92
-21,1,4151,3384,19,6,-92,62,202,-92
-40,1,4184,3375,21,2,-93,61,209,-93
-32,-5,4152,3375,21,-2,-93,61,209,-93
-29,-8,4154,3383,16,3,-93,61,209,-93
-19,-7,4166,3386,22,6,-93,61,209,-93
-16,-3,4139,3380,20,2,-93,61,209,-93
-26,-13,4138,3380,18,-1,-86,50,192,-86
-31,-8,4152,3377,22,1,-86,50,192,-86
-26,9,4150,3371,17,4,-86,50,192,-86
-14,-13,4141,3375,18,3,-86,50,192,-86
-31,-7,4140,3386,23,-2,-86,50,192,-86
-40,2,4152,3371,18,1,-87,57,203,-87
-36,-16,4170,3386,18,1,-87,57,203,-87
-27,-5,4143,3379,24,3,-87,57,203,-87
-29,-6,4159,3376,20,10,-87,57,203,-87
-35,0,4171,3379,19,7,-87,57,203,-87
-32,13,4154,3372,15,7,-89,53,197,-89
-32,0,4164,3380,17,3,-89,53,197,-89
-37,6,4153,3389,22,1,-89,53,197,-89
-27,2,4145,3386,18,4,-89,53,197,-89
-39,-7,4142,3383,17,7,-89,53,197,-89
-25,10,4099,3387,19,6,-87,57,209,-87
-44,-2,4127,3386,13,5,-87,57,209,-87
-47,-7,4162,3379,11,9,-87,57,209,-87
-38,8,4133,3380,10,9,-87,57,209,-87
-41,-3,4140,3380,15,8,-87,57,209,-87
-25,-15,4165,3379,14,9,-81,57,203,-81
-34,-1,4161,3370,16,10,-81,57,203,-81
-41,5,4166,3387,18,12,-81,57,203,-81
-35,3,4142,3383,11,5,-81,57,203,-81
-49,4,4140,3376,10,7,-81,57,203,-81
-36,6,4117,3373,9,12,-81,57,203,-81
-48,2,4140,3372,11,10,-81,57,203,-81
-44,-3,4161,3378,12,11,-81,57,203,-81
-46,11,4132,3381,12,6,-81,57,203,-81
-41,-7,4134,3379,11,6,-81,57,203,-81
-45,9,4172,3375,12,8,-81,57,203,-81
-51,-8,4150,3383,11,8,-92,58,204,-92
-31,7,4149,3376,17,6,-92,58,204,-92
-56,-18,4141,3366,16,5,-92,58,204,-92
-39,9,4122,3378,17,-1,-92,58,204,-92
-52,1,4134,3384,19,-5,-92,58,204,-92
-43,0,4156,3374,17,-4,-80,44,206,-80
-46,-7,4131,3372,14,-5,-80,44,206,-80
-41,-13,4159,3371,14,0,-80,44,206,-80
-33,-10,4160,3383,22,-2,-80,44,206,-80
-39,-22,4153,3372,18,2,-80,44,206,-80
-41,14,4155,3380,19,-3,-88,54,206,-88
-37,-4,4167,3381,23,-9,-88,54,206,-88
-46,-19,4155,3380,22,-1,-88,54,206,-88
-26,-16,4149,3369,20,1,-88,54,206,-88
-33,-9,4170,3367,18,-3,-88,54,206,-88
-26,-12,4137,3375,15,-3,-82,52,202,-82
-38,4,4121,3378,24,-2,-82,52,202,-82
-34,-8,4108,3385,23,5,-82,52,202,-82
-43,6,4134,3392,15,1,-82,52,202,-82
-35,-5,4146,3388,9,1,-82,52,202,-82
-38,-18,4155,3392,13,1,-81,57,205,-81
-30,19,4179,3377,17,3,-81,57,205,-81
-22,-5,4156,3384,20,12,-81,57,205,-81
-43,-4,4160,3382,19,12,-81,57,205,-81
-28,9,4151,3386,20,8,-88,60,198,-88
-44,-7,4132,3387,18,-1,-88,60,198,-88
-28,-3,4147,3389,15,-4,-88,60,198,-88
-28,5,4137,3385,16,-3,-88,60,198,-88
-22,9,4101,3380,22,0,-88,60,198,-88
-27,6,4108,3383,19,1,-88,60,198,-88
-46,-1,4126,3379,20,6,-82,60,198,-82
-37,15,4112,3381,16,4,-82,60,198,-82
-49,2,4139,3381,16,6,-82,60,198,-82
-26,4,4141,3361,16,7,-82,60,198,-82
-46,1,4154,3384,15,8,-82,60,198,-82
-36,-1,4132,3385,9,9,-89,55,205,-89
-20,-7,4169,3386,10,9,-89,55,205,-89
-24,18,4173,3374,14,9,-89,55,205,-89
-33,13,4153,3383,11,7,-89,55,205,-89
-40,15,4119,3377,9,5,-89,55,205,-89
-47,9,4150,3377,13,4,-85,57,197,-85
-42,14,4145,3380,14,2,-85,57,197,-85
-31,5,4146,3373,17,0,-85,57,197,-85
-44,0,4115,3379,10,7,-85,57,197,-85
-21,0,4154,3364,12,7,-85,57,197,-85
-35,-4,4139,3366,17,9,-83,55,199,-83
-45,2,4130,3373,12,12,-83,55,199,-83
-29,-9,4161,3370,16,7,-83,55,199,-83
-32,-12,4158,3379,20,10,-83,55,199,-83
-27,-24,4168,3383,14,3,-83,55,199,-83
-21,1,4142,3379,14,0,-87,59,203,-87
-23,-10,4122,3377,16,2,-87,59,203,-87
-27,2,4149,3384,17,5,-87,59,203,-87
-43,-6,4148,3386,20,5,-87,59,203,-87
-32,5,4166,3377,18,-1,-87,59,203,-87
-38,-7,4160,3374,16,3,-83,55,205,-83
-36,-15,4127,3374,14,-2,-83,55,205,-83
-40,-39,4121,3364,16,3,-83,55,205,-83
-50,-7,4138,3367,17,1,-83,55,205,-83
-35,-19,4132,3377,18,1,-83,55,205,-83
-33,-4,4116,3382,19,-5,-83,63,201,-83
-42,-4,4160,3376,21,-1,-83,63,201,-83
-27,-5,4156,3381,22,1,-83,63,201,-83
-26,-11,4153,3368,26,3,-83,63,201,-83
-36,-9,4124,3367,21,0,-86,54,198,-86
-43,-2,4135,3379,18,-2,-86,54,198,-86
-35,-26,4135,3392,20,3,-86,54,198,-86
-20,8,4117,3380,18,2,-86,54,198,-86
-32,4,4110,3386,21,5,-86,54,198,-86
-39,-16,4128,3372,22,2,-86,54,198,-86
-23,-24,4139,3375,17,9,-76,56,198,-76
-37,-12,4165,3372,14,6,-76,56,198,-76
-27,-4,4176,3365,14,6,-76,56,198,-76
-45,-7,4146,3379,15,6,-76,56,198,-76
-38,-19,4161,3379,10,7,-76,56,198,-76
-17,11,4166,3381,18,11,-81,55,199,-81
-33,-18,4137,3378,23,10,-81,55,199,-81
-28,-12,4145,3375,12,7,-81,55,199,-81
-50,-24,4143,3376,13,6,-81,55,199,-81
-43,-4,4147,3383,11,10,-81,55,199,-81
-42,12,4144,3383,15,8,-81,55,199,-81
-54,3,4148,3382,15,6,-81,55,199,-81
-42,-18,4118,3388,14,8,-81,55,199,-81
-45,-18,4159,3377,14,11,-81,55,199,-81
-51,-13,4150,3384,11,16,-81,55,199,-81
-44,-3,4138,3376,15,14,-81,55,199,-81
-51,6,4165,3370,12,13,-84,62,194,-84
-40,5,4137,3376,9,13,-84,62,194,-84
-44,-6,4138,3375,15,10,-84,62,194,-84
-30,4,4141,3372,18,-1,-84,62,194,-84
-47,-2,4129,3379,14,2,-84,62,194,-84
-49,-10,4144,3373,16,2,-89,55,203,-89
-54,-3,4171,3383,18,6,-89,55,203,-89
-58,3,4167,3376,16,5,-89,55,203,-89
-46,-22,4153,3380,14,5,-89,55,203,-89
-59,-3,4176,3372,14,7,-89,55,203,-89
-40,0,4159,3381,16,8,-78,56,208,-78
-26,6,4137,3371,11,3,-78,56,208,-78
-37,-2,4166,3371,18,1,-78,56,208,-78
-42,-17,4132,3374,19,-2,-78,56,208,-78
-24,0,4148,3377,19,-9,-78,56,208,-78
-26,6,4143,3379,15,-5,-88,52,206,-88
-39,-1,4138,3372,18,1,-88,52,206,-88
-37,-5,4131,3376,20,-1,-88,52,206,-88
-45,11,4120,3371,16,0,-88,52,206,-88
-12,-4,4169,3374,15,3,-88,52,206,-88
-33,-9,4170,3378,10,-5,-87,55,201,-87
-23,23,4164,3378,19,-6,-87,55,201,-87
-23,0,4147,3375,25,-1,-87,55,201,-87
-30,2,4153,3383,19,-2,-87,55,201,-87
-25,3,4163,3392,17,-1,-87,55,201,-87
-47,1,4122,3384,20,4,-82,58,202,-82
-54,1,4148,3378,16,5,-82,58,202,-82
-25,12,4116,3375,13,0,-82,58,202,-82
-27,-6,4153,3387,14,5,-82,58,202,-82
-30,8,4150,3372,10,5,-82,58,202,-82
-32,6,4143,3385,16,5,-79,53,203,-79
-39,-19,4150,3381,15,6,-79,53,203,-79
-41,5,4131,3372,15,6,-79,53,203,-79
-38,-13,4144,3383,18,9,-79,53,203,-79
-27,-3,4133,3382,12,12,-79,53,203,-79
-45,-11,4144,3383,15,11,-85,61,201,-85
-44,-7,4186,3370,16,7,-85,61,201,-85
-31,15,4169,3367,13,7,-85,61,201,-85
-43,13,4164,3383,17,9,-85,61,201,-85
-55,-11,4147,3384,21,8,-85,61,201,-85
-44,0,4169,3379,18,10,-83,53,197,-83
-44,-25,4139,3384,17,7,-83,53,197,-83
-43,-33,4141,3381,11,0,-83,53,197,-83
-35,-5,4131,3379,10,4,-83,53,197,-83
-35,-23,4136,3381,12,7,-83,53,197,-83
-46,-11,4146,3386,13,4,-86,68,196,-86
-55,-21,4136,3381,19,4,-86,68,196,-86
-40,-9,4163,3372,21,5,-86,68,196,-86
-41,-6,4137,3374,17,5,-86,68,196,-86
-24,-3,4139,3374,15,-1,-83,61,201,-83
-33,-16,4171,3387,16,1,-83,61,201,-83
-32,5,4170,3377,21,-2,-83,61,201,-83
-35,-4,4147,3367,19,-1,-83,61,201,-83
-11,6,4154,3371,21,-2,-83,61,201,-83
-31,-19,4140,3381,21,0,-83,61,201,-83
-12,-23,4133,3378,18,4,-85,57,201,-85
-27,-15,4136,3377,20,0,-85,57,201,-85
-45,-2,4096,3384,19,1,-85,57,201,-85
-11,-16,4119,3382,21,3,-85,57,201,-85
-37,-11,4103,3375,18,0,-85,57,201,-85
-45,-8,4140,3377,20,-1,-83,49,207,-83
-51,-17,4140,3388,25,-1,-83,49,207,-83
-36,-17,4149,3381,24,0,-83,49,207,-83
-52,-12,4131,3366,23,3,-83,49,207,-83
-35,-23,4164,3367,17,5,-83,49,207,-83
-19,-8,4165,3370,18,3,-83,55,205,-83
-18,-8,4139,3366,26,5,-83,55,205,-83
-44,-5,4118,3378,21,4,-83,55,205,-83
-35,-1,4153,3391,15,-1,-83,55,205,-83
-48,6,4136,3381,12,0,-83,55,205,-83
-37,-4,4139,3383,12,3,-86,58,204,-86
-33,3,4100,3374,13,6,-86,58,204,-86
-37,-2,4160,3377,12,1,-86,58,204,-86
-43,6,4128,3392,6,7,-86,58,204,-86
-49,-4,4172,3385,7,17,-86,58,204,-86
-36,-10,4172,3387,11,16,-75,53,205,-75
-49,-6,4176,3383,12,13,-75,53,205,-75
-51,3,4153,3376,12,11,-75,53,205,-75
-59,-10,4115,3380,13,12,-75,53,205,-75
-61,5,4124,3373,12,10,-84,56,204,-84
-53,-1,4140,3379,9,9,-84,56,204,-84
-50,5,4139,3371,13,6,-84,56,204,-84
-54,-1,4146,3377,16,0,-84,56,204,-84
-62,5,4144,3375,18,8,-84,56,204,-84
-52,2,4177,3373,15,9,-84,56,204,-84
-68,-4,4179,3377,15,8,-84,56,204,-84
-60,-14,4173,3376,15,7,-84,56,204,-84
-43,-15,4144,3387,14,5,-84,56,204,-84
-35,2,4134,3386,16,2,-84,56,204,-84
-46,3,4161,3381,14,0,-84,56,204,-84
-36,-7,4144,3377,16,-6,-84,56,204,-84
-47,-7,4136,3382,20,-7,-86,66,196,-86
-24,11,4125,3383,20,-4,-86,66,196,-86
-46,13,4122,3369,19,-5,-86,66,196,-86
-38,-16,4128,3384,23,-4,-86,66,196,-86
-37,1,4123,3393,17,-1,-86,66,196,-86
-36,-1,4181,3377,24,-4,-80,50,204,-80
-42,0,4183,3376,22,2,-80,50,204,-80
-41,-9,4161,3372,20,0,-80,50,204,-80
-38,12,4154,3386,20,-1,-80,50,204,-80
-30,3,4167,3387,25,0,-80,50,204,-80
-24,6,4137,3373,24,-4,-82,54,196,-82
-23,6,4108,3382,24,-5,-82,54,196,-82
-29,-4,4116,3384,21,-4,-82,54,196,-82
-20,1,4158,3384,21,-1,-82,54,196,-82
-33,-6,4123,3392,19,-2,-82,54,196,-82
-30,10,4121,3385,26,-1,-89,49,207,-89
-13,-23,4140,3393,24,-2,-89,49,207,-89
-38,-6,4121,3378,22,-3,-89,49,207,-89
-34,2,4138,3366,14,5,-89,49,207,-89
-20,-12,4141,3382,12,4,-89,49,207,-89
-33,-16,4160,3366,12,6,-82,60,196,-82
-27,-2,4134,3377,16,3,-82,60,196,-82
-31,-4,4141,3382,11,5,-82,60,196,-82
-31,-14,4132,3385,7,1,-82,60,196,-82
-28,6,4110,3390,18,6,-82,60,196,-82
-29,-17,4117,3391,12,8,-86,60,204,-86
-31,-10,4152,3389,10,10,-86,60,204,-86
-44,-15,4129,3388,10,10,-86,60,204,-86
-43,-10,4135,3374,6,10,-86,60,204,-86
-36,3,4133,3380,11,10,-86,60,204,-86
-50,-8,4142,3385,10,13,-82,56,204,-82
-41,4,4148,3385,13,16,-82,56,204,-82
-29,-24,4167,3370,12,11,-82,56,204,-82
-29,-20,4170,3375,12,10,-82,56,204,-82
-39,6,4161,3376,17,10,-82,56,204,-82
-37,-4,4142,3379,9,5,-87,51,209,-87
-51,-10,4166,3375,11,0,-87,51,209,-87
-57,-8,4132,3374,15,4,-87,51,209,-87
-36,6,4138,3384,17,4,-87,51,209,-87
-33,-13,4168,3378,22,-1,-87,51,209,-87
-56,-6,4142,3383,21,3,-80,52,202,-80
-40,1,4137,3387,18,6,-80,52,202,-80
-35,-3,4131,3379,19,9,-80,52,202,-80
-21,-21,4159,3373,18,2,-80,52,202,-80
-35,-4,4129,3365,23,-6,-80,52,202,-80
-48,-9,4105,3389,25,-4,-86,50,200,-86
-30,0,4111,3393,25,-3,-86,50,200,-86
-57,-12,4136,3387,23,-5,-86,50,200,-86
-50,-16,4142,3380,22,-4,-86,50,200,-86
-41,-4,4165,3381,22,-3,-86,50,200,-86
-33,5,4138,3378,22,0,-79,61,205,-79
-38,-5,4130,3375,18,4,-79,61,205,-79
-21,10,4163,3368,16,-1,-79,61,205,-79
-48,10,4128,3378,15,2,-79,61,205,-79
-27,3,4134,3375,12,-2,-79,61,205,-79
-53,-15,4112,3375,16,3,-90,56,206,-90
-39,-1,4171,3365,14,2,-90,56,206,-90
-44,0,4137,3374,18,4,-90,56,206,-90
-31,-23,4115,3376,13,7,-90,56,206,-90
-42,3,4161,3373,15,6,-90,56,206,-90
-31,6,4147,3376,17,-2,-87,51,201,-87
-31,0,4139,3378,12,1,-87,51,201,-87
-27,-3,4132,3377,14,11,-87,51,201,-87
-39,14,4145,3374,11,8,-87,51,201,-87
-46,-10,4154,3369,10,6,-87,51,201,-87
-33,-7,4142,3379,13,6,-81,55,205,-81
-39,7,4136,3372,19,7,-81,55,205,-81
-31,-4,4125,3377,13,12,-81,55,205,-81
-23,-2,4162,3380,15,7,-81,55,205,-81
-37,-7,4148,3388,14,5,-81,55,205,-81
-30,-9,4150,3388,11,7,-80,62,202,-80
-40,0,4159,3391,11,9,-80,62,202,-80
-42,-13,4160,3382,16,4,-80,62,202,-80
-31,-12,4140,3382,17,1,-80,62,202,-80
-52,-9,4164,3382,20,6,-80,62,202,-80
-29,-2,4165,3365,22,7,-86,54,202,-86
-47,-3,4188,3356,24,8,-86,54,202,-86
-51,-13,4162,3381,14,5,-86,54,202,-86
-31,0,4145,3386,21,4,-86,54,202,-86
-38,-11,4143,3385,22,-1,-86,54,202,-86
-44,-9,4128,3380,18,-1,-86,54,202,-86
-26,-10,4120,3381,16,-1,-86,54,202,-86
-27,3,4122,3383,21,-7,-86,54,202,-86
-41,7,4155,3379,23,-2,-86,54,202,-86
-50,-11,4151,3381,22,1,-86,54,202,-86
-29,9,4166,3382,20,-1,-86,58,198,-86
-19,-5,4147,3379,16,3,-86,58,198,-86
-45,-17,4152,3382,15,3,-86,58,198,-86
-49,-17,4136,3372,18,-2,-86,58,198,-86
-44,-11,4159,3385,20,-1,-86,58,198,-86
-35,-1,4133,3370,17,6,-86,58,198,-86
-37,1,4139,3381,18,6,-82,60,204,-82
-45,8,4140,3371,18,3,-82,60,204,-82
-46,10,4114,3372,12,4,-82,60,204,-82
-33,-1,4140,3384,8,8,-82,60,204,-82
-48,-16,4167,3385,8,5,-82,60,204,-82
-54,-9,4169,3388,13,2,-85,51,205,-85
-36,-30,4141,3389,14,7,-85,51,205,-85
-40,-19,4165,3389,17,7,-85,51,205,-85
-36,-10,4134,3386,17,1,-85,51,205,-85
-46,4,4142,3390,8,2,-85,51,205,-85
-16,-1,4172,3388,10,10,-88,52,200,-88
-57,-10,4136,3397,12,6,-88,52,200,-88
-40,-10,4128,3383,7,5,-88,52,200,-88
-37,-14,4134,3376,5,4,-88,52,200,-88
-39,-10,4127,3383,12,0,-88,52,200,-88
-38,2,4147,3387,22,11,-82,56,208,-82
-48,-9,4145,3381,16,7,-82,56,208,-82
-44,-12,4159,3381,15,4,-82,56,208,-82
-31,-21,4159,3390,19,6,-82,56,208,-82
-51,-8,4146,3385,20,8,-88,58,202,-88
-38,-16,4139,3380,20,6,-88,58,202,-88
-55,-15,4153,3377,15,2,-88,58,202,-88
-42,-12,4128,3379,17,-1,-88,58,202,-88
-45,-3,4127,3393,14,0,-88,58,202,-88
-43,-1,4143,3384,12,5,-88,58,202,-88
-45,-19,4134,3363,18,5,-89,59,193,-89
-49,-15,4136,3369,21,11,-89,59,193,-89
-70,-5,4143,3381,18,10,-89,59,193,-89
-37,-29,4116,3392,21,-1,-89,59,193,-89
-53,-19,4140,3383,18,-1,-89,59,193,-89
-50,20,4130,3378,18,5,-87,55,209,-87
-36,-1,4142,3376,20,5,-87,55,209,-87
-27,-4,4150,3376,17,2,-87,55,209,-87
-47,-2,4140,3386,21,-2,-87,55,209,-87
-34,1,4138,3375,21,-3,-87,55,209,-87
-25,-8,4143,3376,17,-2,-82,50,196,-82
-34,-8,4143,3382,14,-4,-82,50,196,-82
-34,-16,4166,3376,18,-1,-82,50,196,-82
-49,-24,4139,3382,11,4,-82,50,196,-82
-39,-2,4144,3377,17,2,-77,63,199,-77
-24,-24,4143,3376,20,1,-77,63,199,-77
-26,6,4158,3379,14,4,-77,63,199,-77
-37,-15,4160,3379,20,7,-77,63,199,-77
-18,-19,4134,3378,21,6,-77,63,199,-77
-29,-7,4153,3377,15,4,-77,63,199,-77
-29,-5,4147,3385,19,6,-83,57,203,-83
-50,-9,4137,3377,16,5,-83,57,203,-83
-27,-19,4160,3379,17,7,-83,57,203,-83
-51,0,4137,3383,16,4,-83,57,203,-83
-44,6,4142,3370,19,6,-83,57,203,-83
-38,-15,4126,3372,15,7,-83,59,197,-83
-32,11,4118,3379,14,3,-83,59,197,-83
-40,9,4126,3371,15,1,-83,59,197,-83
-36,-7,4150,3373,19,5,-83,59,197,-83
-30,0,4137,3378,17,2,-83,59,197,-83
-28,-2,4154,3373,14,1,-81,55,199,-81
-23,-1,4144,3377,14,4,-81,55,199,-81
-26,10,4144,3385,12,4,-81,55,199,-81
-35,5,4141,3398,12,6,-81,55,199,-81
-14,-14,4132,3384,16,4,-81,55,199,-81
-16,6,4130,3381,19,1,-86,54,208,-86
-30,9,4136,3386,19,-2,-86,54,208,-86
-41,10,4152,3385,19,1,-86,54,208,-86
-33,-1,4108,3384,21,2,-86,54,208,-86
-42,3,4155,3374,21,-4,-86,54,208,-86
-40,7,4171,3371,13,-2,-81,61,197,-81
-53,2,4160,3368,18,2,-81,61,197,-81
-30,1,4141,3384,21,3,-81,61,197,-81
-45,2,4154,3393,19,-1,-81,61,197,-81
-26,-7,4121,3386,18,-2,-81,61,197,-81
-29,3,4150,3383,13,1,-83,59,205,-83
-39,-6,4162,3380,16,-2,-83,59,205,-83
-29,-8,4134,3392,23,-2,-83,59,205,-83
-37,2,4135,3385,17,5,-83,59,205,-83
-29,8,4145,3383,11,1,-83,59,205,-83
-21,-8,4132,3381,13,-2,-83,59,205,-83
-39,-15,4142,3377,14,5,-83,59,205,-83
-37,-6,4127,3373,16,2,-83,59,205,-83
-34,-3,4163,3375,16,4,-83,59,205,-83
-30,-6,4154,3367,18,5,-83,59,205,-83
-40,9,4129,3373,18,6,-83,59,205,-83
-34,-6,4136,3378,17,9,-83,59,205,-83
-55,-14,4135,3387,22,8,-83,59,205,-83
-31,10,4136,3377,20,10,-83,59,205,-83
-49,-7,4145,3391,16,9,-83,59,205,-83
-29,-3,4115,3386,13,8,-83,59,205,-83
-15,-8,4133,3388,16,7,-82,52,202,-82
-34,-17,4146,3383,14,8,-82,52,202,-82
-47,-14,4188,3383,11,4,-82,52,202,-82
-55,-17,4161,3384,9,7,-82,52,202,-82
-42,-13,4146,3370,12,7,-82,52,202,-82
-35,-8,4157,3387,16,7,-88,54,200,-88
-27,-5,4161,3396,9,8,-88,54,200,-88
-44,-5,4131,3390,10,9,-88,54,200,-88
-51,6,4126,3383,16,9,-88,54,200,-88
-44,1,4114,3381,18,4,-88,54,200,-88
-43,-3,4127,3379,17,2,-86,56,206,-86
-40,-14,4133,3382,23,4,-86,56,206,-86
-43,-24,4150,3381,18,1,-86,56,206,-86
-46,-19,4131,3371,10,0,-86,56,206,-86
-48,-16,4137,3379,14,1,-86,56,206,-86
-44,-20,4146,3375,22,3,-83,67,203,-83
-29,-6,4124,3380,15,6,-83,67,203,-83
-41,-26,4144,3387,12,3,-83,67,203,-83
-26,8,4143,3388,22,2,-83,67,203,-83
-35,-33,4136,3376,23,-1,-83,67,203,-83
-26,-11,4156,3386,19,-3,-89,67,209,-89
-24,-8,4156,3383,21,0,-89,67,209,-89
-34,-11,4150,3387,23,4,-89,67,209,-89
-39,-7,4127,3384,16,1,-89,67,209,-89
-43,-13,4139,3382,16,-1,-89,67,209,-89
-45,8,4119,3384,18,0,-91,55,205,-91
-35,-8,4124,3380,19,1,-91,55,205,-91
-41,-7,4117,3373,25,3,-91,55,205,-91
-45,-29,4123,3378,20,3,-91,55,205,-91
-38,-5,4133,3373,18,4,-91,55,205,-91
-28,10,4144,3376,11,-2,-80,54,198,-80
-63,6,4154,3369,13,1,-80,54,198,-80
-39,7,4158,3378,19,8,-80,54,198,-80
-37,10,4137,3371,20,1,-80,54,198,-80
-48,4,4138,3384,15,1,-86,64,202,-86
-47,-8,4125,3374,15,4,-86,64,202,-86
-33,-27,4152,3363,18,-4,-86,64,202,-86
-35,-12,4139,3377,18,-2,-86,64,202,-86
-32,-3,4140,3382,15,1,-86,64,202,-86
-50,-6,4142,3380,16,1,-86,64,202,-86
-44,1,4121,3381,13,2,-90,64,196,-90
-48,-16,4159,3378,15,3,-90,64,196,-90
-42,-2,4155,3382,18,-1,-90,64,196,-90
-45,-18,4152,3384,16,4,-90,64,196,-90
-44,-20,4158,3389,16,2,-90,64,196,-90
-19,-16,4136,3373,17,-1,-81,61,199,-81
-27,-2,4158,3372,14,2,-81,61,199,-81
-42,-10,4150,3380,12,6,-81,61,199,-81
-19,-18,4135,3387,14,0,-81,61,199,-81
-31,-4,4148,3376,17,-3,-81,61,199,-81
-30,-11,4139,3377,16,0,-82,50,196,-82
-38,10,4138,3375,19,0,-82,50,196,-82
-26,1,4161,3365,19,3,-82,50,196,-82
-31,12,4138,3370,16,7,-82,50,196,-82
-33,4,4164,3373,12,2,-81,61,197,-81
-27,15,4158,3382,12,-3,-81,61,197,-81
-49,-16,4136,3386,13,1,-81,61,197,-81
-35,2,4134,3387,13,3,-81,61,197,-81
-33,5,4151,3375,15,8,-81,61,197,-81
-32,-9,4153,3381,17,-1,-81,61,197,-81
-35,-4,4136,3370,24,-2,-79,55,201,-79
-34,7,4146,3384,20,3,-79,55,201,-79
-41,0,4140,3381,18,7,-79,55,201,-79
-34,11,4150,3384,18,1,-79,55,201,-79
-44,1,4149,3385,13,1,-79,55,201,-79
-33,-4,4135,3387,17,1,-93,61,197,-93
-41,1,4166,3375,23,4,-93,61,197,-93
-36,12,4129,3372,20,5,-93,61,197,-93
-21,-1,4128,3394,15,6,-93,61,197,-93
-43,-11,4135,3392,16,3,-93,61,197,-93
-45,-27,4125,3379,15,9,-85,53,201,-85
-33,-1,4167,3379,13,10,-85,53,201,-85
-37,14,4120,3388,20,7,-85,53,201,-85
-40,-1,4181,3375,19,4,-85,53,201,-85
-27,-1,4170,3378,16,5,-85,53,201,-85
-37,-26,4164,3370,17,1,-86,62,202,-86
-31,-17,4145,3378,15,5,-86,62,202,-86
-42,-23,4161,3392,15,10,-86,62,202,-86
-30,2,4161,3382,19,6,-86,62,202,-86
-44,-18,4118,3377,13,2,-86,62,202,-86
-43,-18,4128,3380,20,4,-86,62,202,-86
-39,-8,4148,3393,18,6,-86,62,202,-86
-30,-13,4133,3382,16,-3,-86,62,202,-86
-37,-11,4132,3376,14,-5,-86,62,202,-86
-41,10,4125,3386,16,2,-86,62,202,-86
-54,-22,4145,3379,16,-1,-86,62,202,-86
-43,-22,4122,3376,13,9,-87,65,197,-87
-46,-26,4144,3383,19,8,-87,65,197,-87
-56,-26,4158,3382,20,6,-87,65,197,-87
-47,-32,4178,3384,18,8,-87,65,197,-87
-47,-23,4155,3389,16,13,-87,65,197,-87
-32,-17,4129,3384,15,7,-89,59,201,-89
-22,-2,4151,3386,19,3,-89,59,201,-89
-31,-8,4138,3381,18,6,-89,59,201,-89
-26,-14,4090,3385,16,2,-89,59,201,-89
-21,-16,4096,3383,17,1,-89,59,201,-89
-39,-17,4119,3389,15,7,-76,60,200,-76
-52,-10,4124,3388,10,7,-76,60,200,-76
-31,-46,4142,3375,18,5,-76,60,200,-76
-36,-13,4199,3379,22,4,-76,60,200,-76
-40,-7,4197,3382,10,11,-76,60,200,-76
-34,-22,4191,3366,16,10,-81,63,199,-81
-21,-12,4148,3370,16,10,-81,63,199,-81
-31,-16,4104,3371,11,7,-81,63,199,-81
-25,10,4089,3381,15,-3,-81,63,199,-81
-49,-20,4113,3391,12,-5,-81,63,199,-81
-35,5,4089,3378,12,-7,-85,61,199,-85
-51,-1,4107,3386,14,-1,-85,61,199,-85
-46,5,4142,3375,17,-3,-85,61,199,-85
-55,6,4160,3376,22,0,-85,61,199,-85
-37,12,4194,3376,20,4,-85,61,199,-85
-29,0,4181,3378,22,4,-79,63,197,-79
-27,7,4187,3371,28,8,-79,63,197,-79
-23,18,4166,3376,24,4,-79,63,197,-79
-31,26,4143,3365,16,1,-79,63,197,-79
-35,7,4153,3371,20,-2,-79,63,197,-79
-35,1,4150,3371,19,-1,-85,59,197,-85
-44,-2,4116,3380,18,-6,-85,59,197,-85
-55,-5,4114,3381,16,-2,-85,59,197,-85
-43,7,4112,3380,17,2,-85,59,197,-85
-54,-10,4127,3372,18,3,-85,59,197,-85
-44,14,4130,3371,18,5,-79,61,199,-79
-42,-2,4140,3371,14,8,-79,61,199,-79
-41,3,4163,3371,11,13,-79,61,199,-79
-45,7,4169,3385,17,7,-79,61,199,-79
-36,7,4164,3384,17,3,-79,61,199,-79
-35,7,4148,3373,16,3,-82,62,202,-82
-24,25,4146,3375,10,-4,-82,62,202,-82
-34,25,4129,3378,12,-2,-82,62,202,-82
-41,6,4114,3381,17,-1,-82,62,202,-82
-41,31,4106,3385,17,2,-82,62,202,-82
-61,21,4116,3394,18,3,-82,56,202,-82
-48,3,4131,3380,15,3,-82,56,202,-82
-51,7,4130,3382,14,11,-82,56,202,-82
-45,4,4132,3378,8,13,-82,56,202,-82
-47,-9,4171,3386,17,10,-82,56,202,-82
-54,-16,4160,3377,12,11,-77,61,193,-77
-26,-7,4168,3383,10,11,-77,61,193,-77
-29,-7,4162,3385,16,0,-77,61,193,-77
-49,-17,4160,3389,17,-3,-77,61,193,-77
-36,-9,4167,3388,18,-5,-77,61,193,-77
-43,-15,4137,3378,24,-4,-83,57,203,-83
-55,4,4136,3384,22,-2,-83,57,203,-83
-18,-20,4140,3374,23,-3,-83,57,203,-83
-19,-16,4121,3370,17,1,-83,57,203,-83
-29,-18,4136,3380,15,1,-83,57,203,-83
-37,-17,4133,3383,10,5,-88,56,206,-88
-41,-15,4160,3394,11,7,-88,56,206,-88
-29,-21,4154,3384,18,5,-88,56,206,-88
-27,-27,4168,3381,17,6,-88,56,206,-88
-25,-37,4168,3378,19,6,-88,56,206,-88
-36,-19,4173,3372,19,-3,-83,59,203,-83
-23,-19,4151,3375,19,-4,-83,59,203,-83
-37,-29,4148,3381,15,-3,-83,59,203,-83
-31,-16,4139,3386,21,-4,-83,59,203,-83
-42,-16,4148,3372,20,-4,-83,59,203,-83
-24,-28,4115,3382,16,-2,-84,54,202,-84
-40,-2,4138,3378,12,0,-84,54,202,-84
-43,-10,4145,3375,13,1,-84,54,202,-84
-34,-37,4148,3367,12,7,-84,54,202,-84
-29,-3,4132,3381,10,8,-84,54,202,-84
-40,2,4191,3388,17,12,-84,54,202,-84
-23,-5,4151,3367,20,7,-84,54,202,-84
-26,-28,4151,3377,16,5,-84,54,202,-84
-35,-11,4153,3387,14,1,-84,54,202,-84
-31,-18,4162,3384,12,2,-84,54,202,-84
-37,-4,4129,3385,12,-2,-84,54,202,-84
-35,1,4144,3386,18,1,-81,59,203,-81
-22,-10,4143,3383,19,1,-81,59,203,-81
-35,9,4135,3372,18,0,-81,59,203,-81
-44,-8,4104,3379,22,2,-81,59,203,-81
-48,6,4134,3367,19,7,-81,59,203,-81
-51,-11,4163,3380,13,14,-82,62,204,-82
-46,10,4168,3385,14,13,-82,62,204,-82
-45,-5,4170,3382,14,9,-82,62,204,-82
-43,8,4148,3379,13,14,-82,62,204,-82
-38,6,4139,3387,15,9,-82,62,204,-82
-60,11,4152,3385,15,7,-82,60,200,-82
-32,24,4147,3378,12,6,-82,60,200,-82
-35,13,4135,3385,10,7,-82,60,200,-82
-39,11,4137,3383,17,4,-82,60,200,-82
-45,11,4116,3380,20,3,-82,60,200,-82
-40,10,4143,3381,16,9,-79,53,201,-79
-44,9,4149,3377,20,7,-79,53,201,-79
-46,-4,4125,3379,17,4,-79,53,201,-79
-36,10,4178,3376,16,6,-79,53,201,-79
-61,26,4187,3382,13,6,-79,53,201,-79
-48,7,4159,3381,12,5,-88,56,200,-88
-38,16,4193,3373,18,2,-88,56,200,-88
-37,2,4130,3377,13,-6,-88,56,200,-88
-46,-1,4136,3389,16,-7,-88,56,200,-88
-41,14,4165,3380,16,0,-88,56,200,-88
-41,16,4123,3382,20,4,-84,60,200,-84
-35,-16,4143,3372,24,2,-84,60,200,-84
-51,-13,4144,3372,17,4,-84,60,200,-84
-31,-2,4150,3368,19,4,-84,60,200,-84
-50,-1,4135,3377,17,1,-84,60,200,-84
-42,-2,4146,3375,15,2,-86,58,198,-86
-38,4,4167,3382,15,6,-86,58,198,-86
-48,2,4148,3381,19,8,-86,58,198,-86
-20,-5,4149,3386,18,3,-86,58,198,-86
-42,-3,4147,3384,14,-1,-86,58,198,-86
-38,-1,4137,3379,18,-4,-92,64,208,-92
-39,-6,4115,3376,19,-3,-92,64,208,-92
-41,-2,4119,3372,18,-3,-92,64,208,-92
-32,-15,4122,3375,20,3,-92,64,208,-92
-23,-22,4127,3376,18,7,-92,64,208,-92
-31,-5,4111,3380,19,1,-87,61,203,-87
-16,-18,4119,3373,19,-2,-87,61,203,-87
-45,-18,4140,3374,20,0,-87,61,203,-87
-29,-9,4172,3370,19,1,-87,61,203,-87
-41,-18,4136,3385,22,8,-87,61,203,-87
-36,-21,4163,3381,22,9,-88,64,198,-88
-41,-12,4135,3378,16,7,-88,64,198,-88
-22,-19,4165,3383,19,9,-88,64,198,-88
-39,-12,4158,3380,19,7,-88,64,198,-88
-33,-21,4158,3375,18,3,-88,64,198,-88
-34,-2,4132,3371,17,2,-84,58,202,-84
-37,-18,4174,3376,16,2,-84,58,202,-84
-52,-8,4141,3386,14,2,-84,58,202,-84
-40,-18,4136,3383,13,5,-84,58,202,-84
-40,-9,4135,3380,14,18,-83,55,203,-83
-48,-13,4150,3380,14,8,-83,55,203,-83
-53,-7,4116,3380,19,8,-83,55,203,-83
-49,-25,4149,3378,15,11,-83,55,203,-83
-49,-16,4158,3373,12,12,-83,55,203,-83
-50,-29,4150,3372,10,7,-83,55,203,-83
-45,-4,4146,3380,13,2,-87,61,197,-87
-29,-24,4142,3384,12,-3,-87,61,197,-87
-49,-18,4150,3377,18,5,-87,61,197,-87
-49,-17,4144,3375,18,7,-87,61,197,-87
-41,-12,4149,3390,14,7,-87,61,197,-87
-40,-12,4144,3380,11,5,-86,56,202,-86
-50,-25,4127,3377,11,9,-86,56,202,-86
-38,-6,4149,3364,11,11,-86,56,202,-86
-43,-8,4137,3385,16,9,-86,56,202,-86
-48,-4,4134,3385,17,3,-86,56,202,-86
-43,7,4150,3383,17,3,-84,60,202,-84
-47,-1,4132,3389,15,1,-84,60,202,-84
-50,1,4148,3375,17,-4,-84,60,202,-84
-40,-4,4167,3377,16,-5,-84,60,202,-84
-40,2,4162,3389,21,3,-84,60,202,-84
-33,-3,4127,3376,24,0,-89,57,201,-89
-35,-12,4160,3364,19,-1,-89,57,201,-89
-46,-6,4154,3368,17,-2,-89,57,201,-89
-42,8,4127,3364,21,-6,-89,57,201,-89
-39,10,4157,3377,12,-5,-89,57,201,-89
-35,16,4160,3393,15,-10,-89,57,201,-89
-30,-3,4157,3386,20,-3,-89,57,201,-89
-29,-4,4129,3390,22,2,-89,57,201,-89
-33,-1,4160,3384,20,1,-89,57,201,-89
-43,6,4154,3374,16,-2,-89,57,201,-89
-19,3,4156,3387,18,2,-89,57,201,-89
-29,8,4149,3384,18,1,-89,63,197,-89
-42,-4,4109,3382,21,7,-89,63,197,-89
-30,1,4139,3371,13,4,-89,63,197,-89
-17,13,4147,3374,10,0,-89,63,197,-89
-24,8,4163,3370,12,8,-89,61,197,-89
-41,-9,4144,3373,8,3,-83,61,203,-83
-33,-2,4142,3379,11,4,-83,61,203,-83
-32,-7,4143,3380,12,11,-83,61,203,-83
-33,-3,4132,3388,9,6,-83,61,203,-83
-24,-4,4127,3386,9,5,-83,61,203,-83
-38,-6,4141,3391,4,8,-84,56,206,-84
-40,-4,4162,3383,11,9,-84,56,206,-84
-39,12,4140,3383,10,10,-84,56,206,-84
-42,-4,4154,3379,14,12,-84,56,206,-84
-46,-15,4145,3378,16,9,-84,56,206,-84
-35,12,4169,3383,19,13,-88,62,194,-88
-37,0,4171,3382,19,11,-88,62,194,-88
-50,-1,4154,3379,18,10,-88,62,194,-88
-39,-12,4137,3378,15,10,-88,62,194,-88
-43,-15,4162,3392,10,7,-88,62,194,-88
-39,-11,4145,3382,13,8,-89,49,201,-89
-41,-15,4141,3394,16,4,-89,49,201,-89
-45,-2,4159,3383,10,3,-89,49,201,-89
-33,-12,4145,3379,20,5,-89,49,201,-89
-46,-10,4134,3380,24,2,-89,49,201,-89
-41,12,4140,3373,18,-1,-83,55,197,-83
-39,-10,4122,3375,13,-4,-83,55,197,-83
-53,13,4160,3367,13,0,-83,55,197,-83
-66,-13,4160,3373,13,-4,-83,55,197,-83
-36,-16,4134,3373,18,1,-83,55,197,-83
-49,-18,4128,3382,18,4,-85,61,199,-85
-30,-3,4137,3394,16,1,-85,61,199,-85
-39,-15,4148,3390,14,-4,-85,61,199,-85
-52,-15,4141,3390,21,-3,-85,61,199,-85
-45,-18,4177,3383,25,-2,-85,61,199,-85
-46,-11,4167,3382,23,-2,-84,58,202,-84
-37,-15,4136,3388,18,-7,-84,58,202,-84
-46,-21,4166,3381,15,-5,-84,58,202,-84
-47,-12,4163,3382,22,5,-84,58,202,-84
-32,0,4147,3381,20,4,-84,58,202,-84
-46,-9,4126,3380,17,3,-81,49,203,-81
-18,-6,4124,3382,16,3,-81,49,203,-81
-21,-10,4164,3376,16,3,-81,49,203,-81
-47,-17,4164,3376,16,-1,-81,49,203,-81
-49,-12,4124,3370,15,1,-81,49,203,-81
-57,-17,4137,3384,17,3,-85,57,195,-85
-42,2,4132,3382,10,1,-85,57,195,-85
-46,-1,4128,3371,5,8,-85,57,195,-85
-32,2,4135,3369,20,13,-85,57,195,-85
-17,-14,4144,3384,20,4,-85,57,195,-85
-27,-12,4129,3369,15,9,-80,58,194,-80
-44,-13,4132,3380,14,8,-80,58,194,-80
-26,-17,4139,3377,13,10,-80,58,194,-80
-45,-7,4118,3368,17,7,-80,58,194,-80
-41,-20,4125,3377,15,7,-80,58,194,-80
-30,-8,4104,3373,13,6,-78,54,198,-78
-43,0,4129,3386,16,3,-78,54,198,-78
-28,-14,4134,3388,15,6,-78,54,198,-78
-35,1,4175,3387,13,10,-78,54,198,-78
-23,21,4179,3371,12,4,-78,54,198,-78
-42,-5,4137,3378,19,9,-79,63,197,-79
-38,-1,4185,3382,15,10,-79,63,197,-79
-42,-5,4153,3382,15,4,-79,63,197,-79
-29,-3,4159,3379,16,3,-79,63,197,-79
-34,3,4131,3377,15,3,-79,63,197,-79
-38,3,4115,3381,14,1,-81,63,205,-81
-48,-18,4156,3388,20,-1,-81,63,205,-81
-37,13,4136,3381,22,4,-81,63,205,-81
-44,14,4148,3387,19,5,-81,63,205,-81
-45,7,4148,3378,19,2,-81,63,205,-81
-33,-11,4152,3360,19,4,-84,54,200,-84
-43,-2,4163,3370,19,-1,-84,54,200,-84
-33,9,4132,3383,19,7,-84,54,200,-84
-46,-9,4137,3377,17,8,-84,54,200,-84
-26,7,4157,3374,17,2,-84,54,200,-84
-32,0,4148,3382,22,8,-79,57,209,-79
-24,2,4141,3375,23,4,-79,57,209,-79
-32,-3,4141,3380,20,-1,-79,57,209,-79
-42,3,4149,3376,13,6,-79,57,209,-79
-37,4,4154,3388,17,3,-79,57,209,-79
-33,-2,4153,3389,21,3,-79,57,209,-79
-27,3,4140,3385,15,9,-79,57,209,-79
-40,9,4162,3382,12,7,-79,57,209,-79
-44,-7,4145,3376,14,2,-79,57,209,-79
-40,3,4121,3373,11,7,-79,57,209,-79
-28,-1,4155,3379,13,6,-79,57,209,-79
-41,-11,4153,3373,14,4,-91,53,201,-91
-54,-2,4161,3377,5,6,-91,53,201,-91
-33,-10,4149,3377,15,5,-91,53,201,-91
-54,0,4152,3373,8,5,-91,53,201,-91
-35,2,4157,3375,9,6,-91,53,201,-91
-40,-5,4148,3375,18,4,-83,53,201,-83
-26,-12,4144,3374,21,1,-83,53,201,-83
-46,1,4161,3379,18,4,-83,53,201,-83
-26,-8,4128,3389,15,5,-83,53,201,-83
-31,-14,4153,3377,18,1,-83,53,201,-83
-40,-6,4148,3386,25,-2,-89,57,201,-89
-40,-2,4138,3379,20,9,-89,57,201,-89
-40,-1,4147,3374,16,10,-89,57,201,-89
-45,-3,4157,3383,15,5,-89,57,201,-89
-45,-4,4122,3378,15,3,-89,57,201,-89
-47,-21,4136,3371,14,5,-81,59,211,-81
-51,-30,4137,3377,17,8,-81,59,211,-81
-34,-18,4142,3378,14,8,-81,59,211,-81
-53,-20,4170,3375,12,6,-81,59,211,-81
-62,-6,4127,3381,16,5,-81,59,211,-81
-38,-10,4126,3388,14,8,-81,61,199,-81
-39,-7,4140,3380,21,1,-81,61,199,-81
-49,-6,4132,3386,20,2,-81,61,199,-81
-46,0,4163,3380,15,3,-81,61,199,-81
-40,-6,4147,3382,13,6,-81,61,199,-81
-36,-11,4131,3390,13,5,-90,52,198,-90
-40,3,4147,3378,20,5,-90,52,198,-90
-32,-12,4151,3372,13,5,-90,52,198,-90
-20,15,4146,3377,13,5,-90,52,198,-90
-29,-15,4138,3393,10,-3,-90,52,198,-90
-40,10,4144,3383,14,2,-84,62,200,-84
-38,-25,4139,3382,16,8,-84,62,200,-84
-34,1,4141,3375,17,8,-84,62,200,-84
-53,-10,4141,3386,17,4,-84,62,200,-84
-22,7,4128,3369,15,3,-84,62,200,-84
-30,0,4148,3378,12,1,-92,58,198,-92
-39,12,4142,3383,19,0,-92,58,198,-92
-14,5,4154,3374,15,-1,-92,58,198,-92
-32,-8,4149,3376,11,-5,-92,58,198,-92
-49,7,4171,3376,18,-4,-92,58,198,-92
-53,1,4146,3378,17,1,-79,53,201,-79
-42,-9,4139,3371,22,-2,-79,53,201,-79
-39,4,4152,3363,24,4,-79,53,201,-79
-58,13,4133,3373,13,1,-79,53,201,-79
-22,-6,4171,3386,15,-5,-79,53,201,-79
-29,2,4130,3392,13,-5,-83,57,203,-83
-27,-3,4142,3380,17,1,-83,57,203,-83
-35,7,4133,3375,18,3,-83,57,203,-83
-24,-7,4121,3371,15,4,-83,57,203,-83
-41,7,4141,3370,17,2,-83,57,203,-83
-31,-9,4138,3382,17,-1,-80,56,202,-80
-45,5,4151,3384,19,2,-80,56,202,-80
-39,-2,4144,3381,14,4,-80,56,202,-80
-24,-9,4147,3376,12,2,-80,56,202,-80
-32,-4,4149,3371,17,7,-80,56,202,-80
-38,-8,4138,3381,18,6,-89,53,201,-89
-36,3,4135,3375,16,14,-89,53,201,-89
-51,0,4145,3364,21,5,-89,53,201,-89
-38,10,4128,3372,12,5,-89,53,201,-89
-26,0,4144,3373,11,7,-89,53,201,-89
-25,12,4133,3367,13,4,-81,55,189,-81
-30,4,4125,3378,8,5,-81,55,189,-81
-43,-7,4146,3385,10,5,-81,55,189,-81
-21,-7,4158,3374,12,2,-81,55,189,-81
-44,0,4145,3370,15,4,-81,55,189,-81
-21,5,4141,3378,7,6,-84,56,200,-84
-42,-10,4155,3370,14,1,-84,56,200,-84
-26,-2,4145,3380,21,2,-84,56,200,-84
-33,-4,4123,3376,20,6,-84,56,200,-84
-42,-1,4154,3377,13,7,-84,56,200,-84
-32,0,4132,3387,17,3,-87,59,201,-87
-15,-14,4166,3380,16,0,-87,59,201,-87
-45,1,4151,3377,15,4,-87,59,201,-87
-37,2,4139,3379,11,6,-87,59,201,-87
-24,-5,4180,3378,15,5,-87,59,201,-87
-39,-9,4123,3389,18,1,-86,50,206,-86
-26,2,4128,3377,16,8,-86,50,206,-86
-44,-8,4099,3380,18,5,-86,50,206,-86
-33,7,4150,3381,21,11,-86,50,206,-86
-45,-4,4146,3372,13,5,-86,50,206,-86
-41,12,4154,3382,17,1,-86,50,206,-86
-37,-10,4151,3372,16,-1,-86,50,206,-86
-71,-14,4133,3371,19,-2,-86,50,206,-86
-51,-3,4153,3374,19,5,-86,50,206,-86
-57,11,4141,3383,14,-1,-86,50,206,-86
-58,8,4143,3374,12,1,-86,50,206,-86
-52,2,4128,3369,19,2,-88,56,194,-88
-61,0,4145,3362,18,7,-88,56,194,-88
-35,4,4138,3378,17,6,-88,56,194,-88
-50,-22,4134,3370,17,7,-88,56,194,-88
-38,-23,4131,3377,19,11,-88,56,194,-88
-43,2,4147,3379,17,5,-81,51,195,-81
-48,4,4144,3382,12,1,-81,51,195,-81
-48,-2,4134,3372,17,5,-81,51,195,-81
-43,0,4145,3376,21,3,-81,51,195,-81
-42,-19,4124,3382,17,1,-81,51,195,-81
-42,-27,4132,3380,15,7,-79,49,203,-79
-30,-4,4138,3374,16,4,-79,49,203,-79
-34,-12,4147,3372,18,0,-79,49,203,-79
-28,-9,4119,3387,17,8,-79,49,203,-79
-51,-14,4127,3374,19,3,-79,49,203,-79
-41,-10,4153,3375,18,8,-86,60,206,-86
-34,-4,4162,3365,18,9,-86,60,206,-86
-26,-11,4131,3374,15,9,-86,60,206,-86
-30,-15,4153,3383,18,8,-86,60,206,-86
-34,-18,4141,3388,11,6,-86,60,206,-86
-33,-10,4151,3371,13,3,-86,58,202,-86
-36,14,4155,3365,25,4,-86,58,202,-86
-29,-4,4150,3359,17,-4,-86,58,202,-86
-39,3,4141,3370,14,-3,-86,58,202,-86
-26,-16,4158,3383,14,0,-86,58,202,-86
-52,-8,4176,3381,17,-2,-85,57,205,-85
-26,-7,4136,3377,16,0,-85,57,205,-85
-37,-8,4136,3376,17,3,-85,57,205,-85
-27,-15,4144,3379,16,1,-85,57,205,-85
-30,6,4146,3382,27,2,-85,57,205,-85
-33,4,4159,3367,16,-1,-83,59,205,-83
-36,-10,4171,3372,13,1,-83,59,205,-83
-33,-10,4159,3379,15,3,-83,59,205,-83
-21,-8,4126,3372,17,2,-83,59,205,-83
-22,4,4146,3382,20,-2,-83,59,205,-83
-30,6,4136,3389,18,4,-82,54,208,-82
-40,7,4138,3368,18,7,-82,54,208,-82
-55,-4,4139,3368,16,2,-82,54,208,-82
-36,5,4128,3375,15,-1,-82,54,208,-82
-39,20,4145,3382,16,0,-82,54,208,-82
-31,-4,4143,3380,16,1,-90,60,194,-90
-26,-1,4140,3375,22,3,-90,60,194,-90
-34,5,4130,3381,19,6,-90,60,194,-90
-46,6,4133,3376,14,1,-90,60,194,-90
-29,-9,4152,3379,14,5,-90,60,194,-90
-46,6,4149,3386,13,10,-89,61,213,-89
-35,8,4140,3389,14,9,-89,61,213,-89
-51,-4,4163,3379,13,8,-89,61,213,-89
-44,-3,4120,3379,11,5,-89,61,213,-89
-45,-6,4166,3377,8,1,-89,61,213,-89
-35,-11,4139,3373,11,4,-81,55,205,-81
-40,-5,4158,3378,17,6,-81,55,205,-81
-41,13,4134,3375,15,10,-81,55,205,-81
-45,-9,4118,3388,13,9,-81,55,205,-81
-31,8,4146,3375,10,1,-81,55,205,-81
-33,0,4145,3371,9,1,-86,58,206,-86
-38,-4,4150,3367,10,-2,-86,58,206,-86
-33,-25,4144,3373,7,1,-86,58,206,-86
-55,0,4110,3391,12,4,-86,58,206,-86
-27,6,4153,3378,14,7,-86,58,206,-86
-42,-14,4158,3368,15,-1,-88,56,202,-88
-36,7,4146,3376,13,-4,-88,56,202,-88
-36,7,4145,3371,11,3,-88,56,202,-88
-50,-19,4160,3375,17,-1,-88,56,202,-88
-47,8,4145,3377,14,-4,-88,56,202,-88
-19,-20,4125,3379,13,-3,-84,54,198,-84
-36,-8,4147,3359,19,3,-84,54,198,-84
-37,1,4146,3376,17,-1,-84,54,198,-84
-41,-12,4147,3372,22,1,-84,54,198,-84
-36,-5,4144,3371,22,-2,-84,54,198,-84
-36,-9,4156,3378,20,-8,-85,55,199,-85
-50,-8,4145,3369,18,-5,-85,55,199,-85
-65,-11,4115,3361,15,-1,-85,55,199,-85
-36,-5,4122,3371,20,1,-85,55,199,-85
-34,2,4147,3375,20,4,-85,55,199,-85
-32,-3,4119,3370,20,-4,-83,55,197,-83
-39,3,4121,3381,19,0,-83,55,197,-83
-36,-24,4156,3378,15,1,-83,55,197,-83
-45,-11,4120,3382,15,1,-83,55,197,-83
-25,-16,4140,3376,19,-2,-83,55,197,-83
-39,-13,4167,3378,14,3,-83,55,197,-83
-41,-19,4149,3366,13,7,-83,55,197,-83
-35,-11,4133,3379,13,8,-83,55,197,-83
-27,5,4134,3388,7,2,-83,55,197,-83
-42,-11,4139,3386,10,0,-83,55,197,-83
-52,-29,4164,3372,13,2,-83,55,197,-83
-32,-6,4161,3364,12,5,-85,59,201,-85
-32,-1,4186,3372,14,8,-85,59,201,-85
-32,-5,4158,3380,17,8,-85,59,201,-85
-31,-20,4157,3386,14,3,-85,59,201,-85
-34,-10,4181,3383,13,7,-85,59,201,-85
-49,3,4134,3381,17,9,-79,61,205,-79
-47,-8,4160,3383,15,2,-79,61,205,-79
-30,-19,4142,3369,16,-1,-79,61,205,-79
-36,-4,4155,3375,17,1,-79,61,205,-79
-42,-1,4139,3375,13,3,-79,61,205,-79
-36,-7,4145,3370,13,7,-77,57,201,-77
-41,0,4169,3378,10,4,-77,57,201,-77
-21,-6,4172,3377,10,1,-77,57,201,-77
-31,6,4148,3378,16,6,-77,57,201,-77
-39,12,4139,3377,18,5,-77,57,201,-77
-33,-11,4138,3377,20,4,-77,65,201,-77
-33,-17,4163,3381,15,0,-77,65,201,-77
-19,-3,4132,3382,15,2,-77,65,201,-77
-47,-2,4147,3381,24,3,-77,65,201,-77
-35,15,4146,3380,20,2,-77,65,201,-77
-23,-1,4149,3379,14,4,-82,62,194,-82
-48,1,4150,3375,20,1,-82,62,194,-82
-43,2,4132,3378,14,3,-82,62,194,-82
-48,-7,4137,3385,15,5,-82,62,194,-82
-30,3,4130,3379,17,3,-82,62,194,-82
-43,8,4133,3369,16,1,-86,56,206,-86
-45,5,4138,3377,13,2,-86,56,206,-86
-24,-17,4135,3368,17,-1,-86,56,206,-86
-22,-4,4157,3366,22,0,-86,56,206,-86
-35,10,4122,3384,15,0,-86,56,206,-86
-28,-9,4122,3384,19,-4,-84,56,198,-84
-40,10,4112,3376,22,1,-84,56,198,-84
-51,5,4151,3385,17,-2,-84,56,198,-84
-45,-14,4122,3383,17,2,-84,56,198,-84
-42,0,4146,3376,15,14,-84,56,198,-84
-35,-2,4136,3367,13,9,-87,59,203,-87
-27,-13,4144,3373,20,0,-87,59,203,-87
-40,-6,4151,3377,18,4,-87,59,203,-87
-41,4,4129,3382,14,8,-87,59,203,-87
-59,-2,4138,3379,14,13,-87,49,203,-87
-44,-12,4124,3386,13,2,-81,49,207,-81
-41,-23,4137,3380,15,3,-81,49,207,-81
-25,7,4168,3384,13,11,-81,49,207,-81
-40,-6,4134,3381,6,9,-81,49,207,-81
-45,-4,4122,3376,12,5,-81,49,207,-81
-55,-3,4146,3384,7,8,-83,55,205,-83
-40,-6,4157,3391,9,8,-83,55,205,-83
-39,-14,4130,3378,12,6,-83,55,205,-83
-50,-2,4128,3389,13,2,-83,55,205,-83
-38,-15,4159,3376,15,7,-83,55,205,-83
-34,0,4137,3374,11,11,-88,60,208,-88
-56,-11,4158,3371,17,3,-88,60,208,-88
-48,-11,4128,3373,17,4,-88,60,208,-88
-40,-7,4145,3373,18,2,-88,60,208,-88
-25,-21,4129,3382,15,3,-88,60,208,-88
-33,-14,4144,3378,16,4,-91,67,209,-91
-48,4,4151,3372,14,2,-91,67,209,-91
-34,-17,4136,3379,16,4,-91,67,209,-91
-41,-32,4152,3393,22,2,-91,67,209,-91
-46,2,4158,3379,15,-4,-91,67,209,-91
-30,-5,4162,3379,9,-3,-81,61,205,-81
-31,-2,4176,3376,14,2,-81,61,205,-81
-37,-6,4150,3384,18,2,-81,61,205,-81
-27,10,4138,3375,18,-1,-81,61,205,-81
-29,3,4109,3375,19,5,-81,61,205,-81
-33,-6,4141,3371,15,3,-89,51,205,-89
-32,7,4111,3372,13,3,-89,51,205,-89
-37,-1,4146,3364,21,5,-89,51,205,-89
-26,-3,4129,3378,20,2,-89,51,205,-89
-29,-15,4134,3374,11,0,-89,51,205,-89
-26,-14,4178,3373,12,1,-86,58,198,-86
-36,-4,4166,3380,14,-4,-86,58,198,-86
-24,7,4146,3373,13,2,-86,58,198,-86
-39,1,4170,3374,18,12,-86,58,198,-86
-30,-4,4147,3383,14,7,-86,58,198,-86
-34,-7,4144,3377,13,3,-83,63,207,-83
-43,5,4121,3364,16,4,-83,63,207,-83
-30,6,4143,3372,13,12,-83,63,207,-83
-42,-2,4137,3380,11,6,-83,63,207,-83
-44,3,4155,3374,21,2,-83,63,207,-83
-34,-11,4132,3390,13,4,-83,63,207,-83
-37,4,4150,3380,17,7,-83,63,207,-83
-25,-14,4133,3388,11,8,-83,63,207,-83
-26,-6,4148,3386,11,6,-83,63,207,-83
-36,-2,4165,3371,14,7,-83,63,207,-83
-30,-3,4139,3371,14,7,-83,63,207,-83
-54,-6,4158,3369,9,5,-80,58,206,-80
-38,8,4153,3378,11,4,-80,58,206,-80
-55,-3,4130,3389,13,9,-80,58,206,-80
-61,-8,4146,3384,17,8,-80,58,206,-80
-51,15,4148,3374,10,10,-80,58,206,-80
-58,-8,4135,3375,13,10,-88,56,202,-88
-46,-20,4141,3380,11,8,-88,56,202,-88
-38,-6,4135,3380,17,5,-88,56,202,-88
-17,-17,4142,3376,15,7,-88,56,202,-88
-40,-5,4128,3380,14,6,-88,56,202,-88
-45,-10,4169,3373,18,4,-88,62,196,-88
-51,-13,4143,3376,17,-2,-88,62,196,-88
-12,9,4134,3377,21,-1,-88,62,196,-88
-28,-18,4153,3379,17,-3,-88,62,196,-88
-22,-9,4133,3386,14,-7,-88,62,196,-88
-33,-9,4126,3378,19,-1,-76,56,204,-76
-20,-12,4143,3383,18,-5,-76,56,204,-76
-29,-4,4148,3384,20,-7,-76,56,204,-76
-21,3,4126,3380,25,-4,-76,56,204,-76
-16,16,4155,3381,26,-2,-76,56,204,-76
-20,-5,4142,3373,21,-4,-79,57,203,-79
-25,5,4120,3377,20,-3,-79,57,203,-79
-33,0,4139,3372,27,4,-79,57,203,-79
-49,13,4116,3375,24,3,-79,57,203,-79
-18,0,4145,3373,21,3,-79,57,203,-79
-21,4,4122,3377,22,0,-83,61,197,-83
-34,9,4137,3381,18,5,-83,61,197,-83
-54,1,4133,3370,16,7,-83,61,197,-83
-46,8,4125,3364,21,6,-83,61,197,-83
-36,8,4140,3364,15,7,-83,61,197,-83
-56,2,4115,3377,13,9,-80,56,202,-80
-41,-7,4115,3375,12,9,-80,56,202,-80
-35,-13,4141,3368,10,7,-80,56,202,-80
-43,-5,4143,3374,10,8,-80,56,202,-80
-30,-24,4158,3379,12,7,-95,57,203,-95
-45,-10,4163,3377,4,11,-95,57,203,-95
-60,-18,4143,3382,7,13,-95,57,203,-95
-48,-31,4148,3383,7,9,-95,57,203,-95
-46,-8,4109,3379,6,11,-95,57,203,-95
-52,-24,4123,3382,3,7,-95,57,203,-95
-47,-24,4171,3377,8,5,-93,55,207,-93
-40,-8,4150,3371,6,6,-93,55,207,-93
-48,-4,4156,3367,10,7,-93,55,207,-93
-50,-12,4165,3365,17,4,-93,55,207,-93
-38,-4,4130,3380,17,8,-93,55,207,-93
-41,-14,4161,3393,18,9,-82,60,192,-82
-53,-1,4152,3379,21,6,-82,60,192,-82
-62,-11,4144,3375,20,3,-82,60,192,-82
-37,-18,4143,3374,21,-3,-82,60,192,-82
-37,-7,4144,3372,21,-5,-82,60,192,-82
-55,-19,4160,3355,17,-3,-85,61,197,-85
-31,2,4148,3379,19,-11,-85,61,197,-85
-37,2,4142,3378,23,-7,-85,61,197,-85
-33,-24,4163,3379,23,-5,-85,61,197,-85
-33,7,4113,3370,23,-10,-85,61,197,-85
-31,0,4139,3375,21,-11,-85,53,203,-85
-39,-24,4133,3384,24,-7,-85,53,203,-85
-24,2,4140,3369,26,-11,-85,53,203,-85
-25,-10,4143,3366,26,-13,-85,53,203,-85
-24,10,4124,3374,28,-5,-85,53,203,-85
-10,-3,4146,3378,24,-4,-91,63,203,-91
-27,-9,4142,3373,20,-7,-91,63,203,-91
-12,3,4135,3378,22,-1,-91,63,203,-91
-23,-1,4125,3380,21,3,-91,63,203,-91
-31,2,4126,3377,21,1,-91,63,203,-91
-31,-12,4155,3367,17,6,-79,69,203,-79
-39,-8,4099,3378,15,5,-79,69,203,-79
-43,-9,4132,3370,19,3,-79,69,203,-79
-21,-4,4122,3374,17,7,-79,69,203,-79
-35,-1,4134,3366,9,5,-79,69,203,-79
-35,-6,4135,3384,7,9,-86,52,202,-86
-39,10,4145,3371,10,7,-86,52,202,-86
-33,3,4144,3378,7,11,-86,52,202,-86
-58,6,4151,3381,12,21,-86,52,202,-86
-40,1,4139,3377,5,17,-86,52,202,-86
-36,2,4135,3389,6,16,-85,55,199,-85
-33,-4,4135,3373,6,19,-85,55,199,-85
-49,-12,4152,3376,7,21,-85,55,199,-85
-61,0,4163,3384,6,18,-85,55,199,-85
-56,-22,4136,3373,6,14,-85,55,199,-85
-53,-7,4122,3371,12,10,-85,55,199,-85
-55,7,4148,3378,8,7,-85,55,199,-85
-63,-23,4157,3372,10,13,-85,55,199,-85
-41,-11,4149,3376,10,15,-85,55,199,-85
-57,-18,4151,3377,15,13,-85,55,199,-85
-48,-17,4159,3381,13,13,-85,55,199,-85
-56,-8,4177,3375,12,3,-85,57,207,-85
-46,1,4144,3386,16,-1,-85,57,207,-85
-43,-13,4148,3374,20,2,-85,57,207,-85
-52,-17,4154,3386,24,-5,-85,57,207,-85
-66,-8,4160,3386,15,-5,-85,57,207,-85
-41,3,4128,3377,20,2,-86,60,194,-86
-39,2,4129,3376,26,-3,-86,60,194,-86
-42,1,4156,3373,24,-8,-86,60,194,-86
-51,5,4152,3369,24,-11,-86,60,194,-86
-41,-6,4142,3369,24,-13,-86,60,194,-86
-36,-8,4121,3378,25,-7,-88,56,198,-88
-40,-10,4127,3376,24,-7,-88,56,198,-88
-43,1,4142,3369,19,-4,-88,56,198,-88
-39,3,4128,3365,25,-9,-88,56,198,-88
-46,4,4164,3375,26,-9,-88,56,198,-88
-35,3,4125,3376,27,0,-86,60,194,-86
-35,11,4129,3379,27,-2,-86,60,194,-86
-52,-5,4131,3362,20,-1,-86,60,194,-86
-36,2,4110,3381,21,2,-86,60,194,-86
-49,-14,4179,3372,20,-2,-86,60,194,-86
-46,8,4130,3373,14,1,-78,58,202,-78
-34,-9,4136,3370,13,8,-78,58,202,-78
-49,-6,4162,3383,16,5,-78,58,202,-78
-43,4,4130,3383,15,2,-78,58,202,-78
-51,-1,4122,3379,5,9,-78,58,202,-78
-35,-8,4138,3382,8,8,-84,46,216,-84
-52,-14,4164,3373,11,6,-84,46,216,-84
-37,-11,4166,3378,6,10,-84,46,216,-84
-38,-17,4164,3382,10,6,-84,46,216,-84
-25,-15,4140,3374,11,13,-84,46,216,-84
-43,1,4142,3389,8,14,-85,49,195,-85
-46,-12,4127,3395,9,12,-85,49,195,-85
-35,-9,4150,3367,11,11,-85,49,195,-85
-35,13,4168,3378,8,14,-85,49,195,-85
-47,-7,4140,3379,14,14,-85,49,195,-85
-33,-18,4153,3378,14,15,-82,56,206,-82
-42,-3,4133,3384,15,11,-82,56,206,-82
-40,-19,4167,3374,11,4,-82,56,206,-82
-32,-6,4155,3389,16,5,-82,56,206,-82
-35,-4,4171,3381,21,5,-82,56,206,-82
-32,-5,4183,3386,17,5,-81,53,201,-81
-30,-10,4158,3387,16,3,-81,53,201,-81
-19,-10,4146,3373,16,0,-81,53,201,-81
-27,-5,4150,3384,18,-4,-81,53,201,-81
-34,-3,4153,3383,22,2,-81,53,201,-81
-32,-17,4137,3376,26,3,-79,63,201,-79
-38,-22,4131,3371,23,-2,-79,63,201,-79
-34,-7,4114,3377,25,-6,-79,63,201,-79
-27,1,4161,3374,26,-3,-79,63,201,-79
-28,0,4121,3380,23,-2,-79,63,201,-79
-21,-3,4159,3370,21,-1,-85,53,201,-85
-31,5,4127,3370,23,-6,-85,53,201,-85
-29,6,4127,3387,25,-5,-85,53,201,-85
