AX,AY,AZ,TEMP,GX,GY,GZ,MX,MY,MZ,MV
48,-63,4290,2267,20,4,-59,117,109,-59,0
36,-79,4275,2270,21,6,-59,117,109,-59,0
59,-72,4280,2261,20,2,-59,117,109,-59,0
67,-78,4277,2271,18,10,-56,124,118,-56,1
46,-50,4277,2263,23,9,-56,124,118,-56,0
62,-67,4270,2250,19,3,-56,124,118,-56,0
36,-68,4306,2253,13,5,-56,124,118,-56,0
62,-64,4300,2261,12,1,-56,124,118,-56,0
51,-56,4299,2256,14,-1,-65,115,115,-65,1
50,-67,4278,2261,19,5,-65,115,115,-65,0
55,-71,4266,2261,23,1,-65,115,115,-65,0
48,-60,4273,2251,18,2,-65,115,115,-65,0
46,-42,4281,2261,19,0,-65,115,115,-65,0
51,-76,4264,2265,17,3,-58,124,110,-58,1
48,-77,4296,2267,16,0,-58,124,110,-58,0
44,-65,4303,2258,22,-2,-58,124,110,-58,0
49,-73,4289,2248,19,7,-58,124,110,-58,0
52,-73,4319,2244,14,5,-58,124,110,-58,0
47,-63,4270,2247,20,4,-61,115,119,-61,0
53,-52,4284,2253,20,3,-61,115,119,-61,0
41,-72,4291,2266,17,6,-61,115,119,-61,0
47,-73,4271,2266,17,-4,-61,115,119,-61,0
71,-70,4260,2276,21,5,-61,115,119,-61,0
65,-60,4274,2266,23,2,-60,118,110,-60,0
55,-57,4275,2267,17,4,-60,118,110,-60,0
46,-80,4285,2268,14,5,-60,118,110,-60,0
47,-84,4299,2263,15,6,-60,118,110,-60,0
61,-81,4271,2255,15,5,-60,118,110,-60,0
54,-56,4270,2271,19,3,-53,117,111,-53,1
51,-74,4267,2261,16,4,-53,117,111,-53,0
31,-63,4290,2264,22,6,-53,117,111,-53,0
38,-61,4273,2265,22,4,-53,117,111,-53,0
48,-64,4319,2265,21,2,-53,117,111,-53,0
42,-66,4298,2260,16,4,-71,109,113,-71,1
47,-73,4310,2268,21,7,-71,109,113,-71,0
37,-67,4279,2252,20,7,-71,109,113,-71,0
57,-62,4278,2258,18,5,-71,109,113,-71,0
55,-78,4310,2257,23,-2,-71,109,113,-71,0
47,-55,4275,2254,18,6,-67,111,113,-67,1
43,-82,4295,2263,21,1,-67,111,113,-67,0
49,-69,4293,2253,23,7,-67,111,113,-67,0
45,-65,4289,2266,19,6,-67,111,113,-67,0
45,-75,4315,2259,18,2,-67,111,113,-67,0
58,-70,4310,2270,17,8,-62,116,116,-62,1
57,-60,4292,2271,17,8,-62,116,116,-62,0
38,-58,4295,2265,17,3,-62,116,116,-62,0
43,-89,4270,2256,18,2,-62,116,116,-62,0
41,-69,4305,2252,19,3,-62,116,116,-62,0
59,-65,4267,2262,16,7,-66,118,120,-66,1
68,-65,4292,2263,12,4,-66,118,120,-66,0
50,-75,4276,2270,21,-3,-66,118,120,-66,0
47,-61,4282,2262,18,5,-66,118,120,-66,0
50,-73,4284,2268,18,4,-66,118,120,-66,0
44,-67,4260,2263,21,3,-65,123,113,-65,1
55,-52,4293,2265,16,6,-65,123,113,-65,0
59,-63,4295,2256,18,7,-65,123,113,-65,0
43,-70,4297,2246,23,4,-65,123,113,-65,0
63,-69,4316,2250,17,5,-65,123,113,-65,0
63,-61,4296,2265,13,4,-64,112,116,-64,1
41,-74,4307,2280,18,3,-64,112,116,-64,0
54,-63,4290,2266,13,1,-64,112,116,-64,0
45,-62,4285,2269,19,-1,-64,112,116,-64,0
53,-57,4279,2266,22,0,-64,112,116,-64,0
42,-54,4299,2268,19,10,-57,121,115,-57,1
57,-63,4287,2259,20,6,-57,121,115,-57,0
62,-75,4278,2266,21,3,-57,121,115,-57,0
58,-65,4278,2257,17,2,-57,121,115,-57,0
36,-65,4321,2248,13,3,-57,119,115,-57,1
56,-84,4273,2274,18,5,-57,119,115,-57,1
50,-74,4302,2266,24,2,-57,119,115,-57,0
32,-67,4283,2256,19,3,-57,119,115,-57,0
50,-56,4275,2257,15,2,-57,119,115,-57,0
32,-64,4298,2260,17,8,-57,119,115,-57,0
49,-62,4272,2251,17,7,-57,119,115,-57,0
55,-67,4272,2262,19,1,-57,119,115,-57,0
45,-53,4292,2263,13,-1,-57,119,115,-57,0
56,-67,4274,2262,15,-3,-57,119,115,-57,0
71,-69,4301,2250,18,6,-57,119,115,-57,0
52,-76,4273,2267,21,8,-57,119,115,-57,0
57,-64,4285,2272,18,2,-57,119,115,-57,0
53,-53,4281,2266,16,0,-57,119,115,-57,0
51,-83,4272,2270,15,8,-57,119,115,-57,0
52,-67,4283,2267,16,8,-57,119,115,-57,0
40,-60,4289,2261,20,3,-57,119,115,-57,0
50,-57,4285,2248,22,3,-60,122,114,-60,1
32,-56,4295,2257,18,4,-60,122,114,-60,0
52,-85,4279,2263,17,9,-60,122,114,-60,0
40,-60,4300,2263,21,1,-60,122,114,-60,0
47,-86,4283,2259,19,2,-60,122,114,-60,0
51,-56,4283,2253,23,4,-62,122,116,-62,1
51,-71,4302,2266,23,3,-62,122,116,-62,0
38,-76,4269,2269,19,4,-62,122,116,-62,0
42,-76,4284,2265,14,6,-62,122,116,-62,0
44,-68,4276,2270,22,10,-62,122,116,-62,0
43,-76,4272,2264,22,5,-64,126,116,-64,1
55,-63,4259,2263,21,3,-64,126,116,-64,0
55,-68,4280,2267,21,1,-64,126,116,-64,0
51,-57,4302,2269,24,1,-64,126,116,-64,0
43,-67,4298,2276,15,5,-64,126,116,-64,0
54,-82,4304,2272,16,4,-67,113,109,-67,1
53,-81,4285,2267,18,4,-67,113,109,-67,0
51,-61,4288,2257,16,0,-67,113,109,-67,0
49,-61,4310,2256,14,7,-67,113,109,-67,0
66,-69,4301,2256,18,10,-67,113,109,-67,0
51,-70,4265,2258,12,5,-63,119,119,-63,1
48,-76,4299,2267,16,8,-63,119,119,-63,0
47,-71,4284,2265,17,4,-63,119,119,-63,0
43,-66,4270,2271,19,5,-63,119,119,-63,0
46,-57,4290,2255,17,5,-63,119,119,-63,0
54,-74,4297,2261,16,3,-64,116,118,-64,1
36,-60,4282,2276,19,1,-64,116,118,-64,0
40,-71,4295,2273,17,5,-64,116,118,-64,0
39,-63,4263,2265,17,6,-64,116,118,-64,0
46,-65,4258,2271,18,4,-59,117,113,-59,1
68,-51,4284,2278,18,0,-59,117,113,-59,1
56,-76,4267,2258,21,-3,-59,117,113,-59,0
42,-68,4308,2254,18,4,-59,117,113,-59,0
47,-57,4295,2258,17,5,-59,117,113,-59,0
37,-65,4284,2270,18,3,-59,117,113,-59,0
56,-67,4272,2266,20,-1,-61,113,113,-61,1
60,-76,4280,2269,24,0,-61,113,113,-61,0
54,-66,4270,2256,20,2,-61,113,113,-61,0
48,-71,4286,2249,19,0,-61,113,113,-61,0
59,-71,4297,2259,20,6,-61,113,113,-61,0
48,-70,4293,2267,17,4,-65,115,115,-65,1
47,-67,4302,2266,15,3,-65,115,115,-65,0
37,-79,4294,2266,19,7,-65,115,115,-65,0
47,-68,4315,2263,22,7,-65,115,115,-65,0
59,-64,4300,2258,22,4,-65,115,115,-65,0
53,-71,4290,2267,18,6,-58,120,110,-58,1
48,-48,4294,2262,20,4,-58,120,110,-58,0
39,-69,4272,2258,22,-3,-58,120,110,-58,0
30,-64,4265,2260,21,1,-58,120,110,-58,0
47,-66,4246,2267,23,1,-58,120,110,-58,0
50,-60,4290,2270,25,1,-65,119,115,-65,1
53,-66,4288,2263,23,1,-65,119,115,-65,0
55,-62,4272,2259,21,1,-65,119,115,-65,0
59,-60,4291,2250,17,5,-65,119,115,-65,0
46,-73,4284,2271,14,6,-65,119,115,-65,0
53,-70,4318,2263,16,2,-61,117,115,-61,1
54,-58,4276,2265,22,2,-61,117,115,-61,0
59,-73,4263,2268,23,5,-61,117,115,-61,0
41,-75,4275,2269,21,6,-61,117,115,-61,0
19,-53,4280,2269,20,4,-61,117,115,-61,0
29,-69,4271,2263,22,4,-59,117,117,-59,1
58,-63,4245,2276,25,7,-59,117,117,-59,0
44,-68,4260,2262,22,6,-59,117,117,-59,0
51,-80,4277,2272,19,5,-59,117,117,-59,0
50,-71,4297,2265,19,2,-59,117,117,-59,0
35,-56,4294,2261,24,6,-64,124,114,-64,1
32,-71,4281,2265,16,8,-64,124,114,-64,0
51,-69,4272,2269,20,2,-64,124,114,-64,0
49,-69,4321,2256,21,11,-64,124,114,-64,0
37,-57,4286,2267,16,7,-64,124,114,-64,0
58,-44,4295,2267,12,-1,-66,116,116,-66,1
44,-76,4297,2261,16,8,-66,116,116,-66,0
51,-81,4306,2262,13,7,-66,116,116,-66,0
60,-51,4277,2259,16,7,-66,116,116,-66,0
49,-61,4276,2266,23,7,-66,116,116,-66,0
56,-82,4288,2264,22,1,-57,123,103,-57,1
32,-69,4290,2270,19,2,-57,123,103,-57,0
46,-68,4296,2272,17,8,-57,123,103,-57,0
56,-64,4289,2259,16,6,-57,123,103,-57,0
57,-47,4264,2268,18,7,-57,123,103,-57,0
39,-72,4291,2263,15,11,-66,114,120,-66,1
42,-85,4284,2255,16,3,-66,114,120,-66,0
48,-69,4260,2258,18,1,-66,114,120,-66,0
53,-73,4294,2271,20,5,-66,114,120,-66,0
62,-78,4291,2277,19,9,-66,114,120,-66,0
39,-79,4326,2270,19,4,-66,114,120,-66,0
45,-66,4321,2268,21,2,-66,114,120,-66,0
51,-51,4293,2267,19,4,-66,114,120,-66,0
59,-74,4279,2266,20,8,-66,114,120,-66,0
41,-61,4278,2266,22,9,-66,114,120,-66,0
59,-68,4288,2261,20,0,-66,114,120,-66,0
28,-75,4274,2276,18,2,-65,117,111,-65,1
64,-68,4307,2273,16,6,-65,117,111,-65,0
43,-70,4337,2270,22,8,-65,117,111,-65,0
55,-59,4282,2263,18,9,-65,117,111,-65,0
45,-69,4293,2266,17,7,-65,117,111,-65,0
65,-76,4267,2272,13,5,-59,115,115,-59,1
47,-56,4291,2257,15,2,-59,115,115,-59,0
47,-78,4314,2271,19,-4,-59,115,115,-59,0
60,-71,4324,2269,21,-2,-59,115,115,-59,0
39,-65,4290,2266,20,3,-59,115,115,-59,0
71,-69,4302,2264,17,2,-66,110,112,-66,1
43,-58,4276,2268,19,2,-66,110,112,-66,0
68,-81,4299,2259,19,1,-66,110,112,-66,0
48,-75,4268,2257,18,2,-66,110,112,-66,0
40,-63,4307,2264,18,-1,-66,110,112,-66,0
40,-84,4270,2262,17,3,-59,115,113,-59,1
54,-73,4281,2253,21,2,-59,115,113,-59,0
51,-65,4264,2264,22,4,-59,115,113,-59,0
46,-58,4292,2253,8,2,-59,115,113,-59,0
68,-68,4277,2269,11,2,-59,115,113,-59,0
46,-63,4290,2269,15,1,-60,118,104,-60,1
44,-49,4305,2269,13,4,-60,118,104,-60,0
53,-69,4274,2266,21,6,-60,118,104,-60,0
51,-61,4309,2267,22,9,-60,118,104,-60,0
47,-49,4286,2266,16,6,-60,118,104,-60,0
42,-64,4306,2275,23,5,-65,111,117,-65,1
27,-68,4330,2268,21,4,-65,111,117,-65,0
57,-72,4289,2246,16,5,-65,111,117,-65,0
39,-62,4285,2269,18,2,-65,111,117,-65,0
56,-57,4290,2263,14,1,-65,111,117,-65,0
42,-68,4292,2264,13,0,-62,120,112,-62,1
63,-47,4289,2272,13,9,-62,120,112,-62,0
48,-78,4294,2257,15,12,-62,120,112,-62,0
39,-80,4314,2252,18,1,-62,120,112,-62,0
67,-71,4283,2263,20,1,-62,120,112,-62,0
41,-74,4279,2257,20,8,-68,116,112,-68,1
41,-81,4298,2254,21,2,-68,116,112,-68,0
46,-52,4295,2268,16,1,-68,116,112,-68,0
51,-83,4302,2256,19,5,-68,116,112,-68,0
42,-61,4287,2261,19,9,-68,118,114,-68,1
51,-78,4295,2273,21,6,-68,118,114,-68,1
57,-56,4265,2269,19,8,-68,118,114,-68,0
57,-67,4290,2274,13,8,-68,118,114,-68,0
29,-79,4279,2275,18,1,-68,118,114,-68,0
52,-72,4292,2262,16,5,-68,118,114,-68,0
50,-63,4300,2266,16,9,-61,123,113,-61,1
63,-77,4247,2263,18,5,-61,123,113,-61,0
40,-70,4287,2269,24,6,-61,123,113,-61,0
63,-72,4282,2269,19,1,-61,123,113,-61,0
50,-66,4258,2264,17,3,-61,123,113,-61,0
41,-65,4292,2267,19,8,-59,121,107,-59,1
45,-68,4302,2262,19,6,-59,121,107,-59,0
43,-66,4287,2270,18,3,-59,121,107,-59,0
51,-67,4278,2271,19,4,-59,121,107,-59,0
41,-71,4274,2262,23,5,-59,121,107,-59,0
37,-70,4312,2258,17,2,-58,118,108,-58,1
45,-59,4282,2263,15,2,-58,118,108,-58,0
48,-66,4268,2260,20,2,-58,118,108,-58,0
44,-67,4284,2271,22,4,-58,118,108,-58,0
50,-76,4300,2273,16,1,-58,118,108,-58,0
35,-77,4284,2288,15,1,-62,116,110,-62,1
54,-72,4281,2281,18,5,-62,116,110,-62,0
32,-64,4302,2258,19,5,-62,116,110,-62,0
46,-81,4278,2256,18,3,-62,116,110,-62,0
39,-48,4273,2278,22,6,-62,116,110,-62,0
44,-60,4277,2276,21,4,-63,121,119,-63,1
48,-61,4293,2263,18,1,-63,121,119,-63,0
59,-59,4254,2271,16,1,-63,121,119,-63,0
41,-81,4284,2274,19,1,-63,121,119,-63,0
39,-78,4302,2281,21,5,-63,121,119,-63,0
34,-69,4278,2278,17,6,-63,119,107,-63,1
39,-62,4283,2263,13,8,-63,119,107,-63,0
49,-72,4273,2259,17,9,-63,119,107,-63,0
54,-68,4300,2266,19,-1,-63,119,107,-63,0
40,-66,4281,2265,12,-1,-59,121,113,-59,1
48,-67,4271,2265,9,4,-59,121,113,-59,1
41,-78,4299,2265,21,0,-59,121,113,-59,0
45,-60,4317,2269,20,-2,-59,121,113,-59,0
54,-68,4286,2271,18,2,-59,121,113,-59,0
44,-68,4323,2263,22,4,-59,121,113,-59,0
45,-68,4287,2265,20,7,-63,121,115,-63,1
58,-83,4294,2265,15,6,-63,121,115,-63,0
46,-69,4307,2268,19,5,-63,121,115,-63,0
46,-61,4290,2280,26,7,-63,121,115,-63,0
49,-63,4278,2270,23,3,-63,121,115,-63,0
62,-61,4267,2274,17,-2,-63,121,115,-63,0
55,-64,4294,2262,18,5,-63,121,115,-63,0
51,-67,4283,2264,18,7,-63,121,115,-63,0
61,-64,4291,2262,21,2,-63,121,115,-63,0
53,-43,4287,2263,22,5,-63,121,115,-63,0
58,-55,4275,2267,18,3,-63,121,115,-63,0
51,-63,4279,2262,21,7,-63,121,115,-63,0
56,-82,4303,2281,22,4,-63,121,115,-63,0
38,-59,4290,2267,24,8,-63,121,115,-63,0
46,-70,4294,2258,20,9,-63,121,115,-63,0
45,-50,4285,2260,14,3,-63,121,115,-63,0
31,-70,4293,2272,15,0,-60,112,110,-60,1
56,-72,4280,2275,18,3,-60,112,110,-60,0
31,-59,4284,2254,19,3,-60,112,110,-60,0
45,-76,4280,2271,16,10,-60,112,110,-60,0
43,-71,4284,2268,22,9,-60,112,110,-60,0
54,-82,4272,2267,19,6,-55,115,111,-55,1
47,-52,4294,2267,19,5,-55,115,111,-55,0
70,-57,4277,2290,16,1,-55,115,111,-55,0
57,-74,4287,2273,14,-2,-55,115,111,-55,0
56,-87,4292,2274,23,5,-55,115,111,-55,0
49,-61,4293,2281,20,5,-58,128,112,-58,1
47,-70,4284,2264,19,7,-58,128,112,-58,0
45,-65,4296,2267,20,-1,-58,128,112,-58,0
42,-59,4296,2275,17,0,-58,128,112,-58,0
39,-58,4275,2264,17,6,-58,128,112,-58,0
50,-52,4295,2263,20,4,-69,113,117,-69,1
41,-60,4270,2261,20,9,-69,113,117,-69,0
58,-53,4293,2270,19,3,-69,113,117,-69,0
40,-72,4290,2289,19,2,-69,113,117,-69,0
56,-59,4301,2265,18,4,-69,113,117,-69,0
38,-46,4278,2267,15,6,-56,114,104,-56,1
50,-64,4284,2271,24,9,-56,114,104,-56,0
64,-68,4290,2268,24,8,-56,114,104,-56,0
33,-80,4292,2278,19,4,-56,114,104,-56,0
49,-67,4271,2275,16,6,-56,114,104,-56,0
46,-73,4277,2256,17,6,-61,123,115,-61,1
56,-84,4268,2269,13,4,-61,123,115,-61,0
53,-59,4259,2280,13,2,-61,123,115,-61,0
62,-80,4293,2267,15,2,-61,123,115,-61,0
51,-73,4267,2268,22,10,-61,123,115,-61,0
56,-61,4299,2277,21,8,-71,115,119,-71,1
37,-73,4270,2274,23,0,-71,115,119,-71,0
40,-69,4290,2256,21,10,-71,115,119,-71,0
47,-66,4268,2266,23,9,-71,115,119,-71,0
44,-56,4295,2269,24,5,-71,115,119,-71,0
61,-66,4300,2270,18,9,-61,111,111,-61,1
54,-77,4276,2275,17,6,-61,111,111,-61,0
47,-87,4284,2269,21,6,-61,111,111,-61,0
40,-63,4295,2263,21,6,-61,111,111,-61,0
55,-63,4274,2271,13,1,-61,111,111,-61,0
40,-68,4276,2267,19,3,-71,125,103,-71,1
50,-64,4289,2262,19,3,-71,125,103,-71,0
45,-53,4285,2272,20,8,-71,125,103,-71,0
54,-71,4299,2262,18,2,-71,125,103,-71,0
53,-70,4306,2278,15,0,-71,125,103,-71,0
39,-49,4302,2266,18,4,-60,120,112,-60,1
65,-81,4262,2263,21,6,-60,120,112,-60,0
44,-88,4285,2253,19,7,-60,120,112,-60,0
52,-73,4293,2251,19,9,-60,120,112,-60,0
58,-64,4281,2260,17,5,-60,120,112,-60,0
53,-70,4304,2275,20,0,-64,120,116,-64,1
70,-52,4298,2277,20,-3,-64,120,116,-64,0
37,-60,4277,2279,17,10,-64,120,116,-64,0
50,-71,4282,2278,17,9,-64,120,116,-64,0
45,-69,4273,2273,20,3,-64,120,116,-64,0
57,-50,4286,2270,18,-1,-58,118,108,-58,1
57,-61,4285,2270,19,2,-58,118,108,-58,0
52,-69,4313,2263,19,4,-58,118,108,-58,0
45,-75,4321,2269,17,3,-58,118,108,-58,0
51,-80,4290,2270,18,-3,-58,118,108,-58,0
57,-83,4266,2272,22,1,-66,116,116,-66,1
48,-72,4293,2278,19,1,-66,116,116,-66,0
44,-73,4303,2270,18,2,-66,116,116,-66,0
53,-64,4270,2276,18,-2,-66,116,116,-66,0
28,-65,4308,2275,16,2,-62,116,114,-62,1
43,-71,4282,2272,18,5,-62,116,114,-62,1
51,-50,4317,2274,19,5,-62,116,114,-62,0
54,-61,4293,2273,15,4,-62,116,114,-62,0
38,-72,4291,2265,16,3,-62,116,114,-62,0
73,-71,4297,2265,14,0,-62,116,114,-62,0
32,-57,4272,2278,15,1,-64,118,110,-64,1
41,-75,4289,2272,19,3,-64,118,110,-64,0
52,-75,4281,2273,23,8,-64,118,110,-64,0
47,-74,4270,2274,20,3,-64,118,110,-64,0
45,-68,4285,2264,15,1,-64,124,114,-64,1
55,-64,4290,2261,17,9,-64,124,114,-64,1
34,-64,4282,2259,17,4,-64,124,114,-64,0
43,-70,4273,2261,15,5,-64,124,114,-64,0
39,-63,4295,2262,26,4,-64,124,114,-64,0
45,-70,4285,2267,27,4,-64,124,114,-64,0
63,-63,4309,2275,17,2,-66,114,112,-66,1
60,-63,4301,2268,17,8,-66,114,112,-66,0
54,-57,4310,2269,20,10,-66,114,112,-66,0
42,-74,4282,2274,19,10,-66,114,112,-66,0
52,-60,4275,2270,16,11,-66,114,112,-66,0
57,-64,4304,2262,16,5,-66,114,112,-66,0
58,-75,4274,2265,20,6,-66,114,112,-66,0
52,-55,4311,2256,18,1,-66,114,112,-66,0
46,-58,4294,2254,17,2,-66,114,112,-66,0
50,-63,4299,2268,19,8,-66,114,112,-66,0
36,-78,4299,2265,12,5,-66,114,112,-66,0
52,-62,4297,2257,18,-5,-67,119,111,-67,1
43,-63,4291,2276,13,0,-67,119,111,-67,0
35,-66,4301,2273,17,7,-67,119,111,-67,0
50,-69,4297,2272,21,4,-67,119,111,-67,0
46,-66,4283,2274,21,4,-67,119,111,-67,0
55,-63,4275,2267,18,8,-63,123,115,-63,1
51,-66,4297,2278,13,7,-63,123,115,-63,0
45,-72,4328,2282,19,5,-63,123,115,-63,0
50,-70,4279,2287,19,5,-63,123,115,-63,0
55,-71,4293,2285,20,5,-63,123,115,-63,0
41,-55,4276,2282,20,3,-60,118,114,-60,1
60,-68,4267,2255,20,3,-60,118,114,-60,0
41,-80,4274,2266,24,0,-60,118,114,-60,0
56,-59,4292,2269,13,1,-60,118,114,-60,0
65,-75,4276,2256,16,6,-60,118,114,-60,0
46,-61,4297,2259,14,8,-58,116,110,-58,1
45,-64,4270,2272,15,7,-58,116,110,-58,0
47,-67,4287,2268,24,4,-58,116,110,-58,0
48,-52,4267,2268,22,-3,-58,116,110,-58,0
36,-60,4284,2275,22,1,-58,116,110,-58,0
50,-71,4283,2275,20,7,-61,117,113,-61,1
54,-66,4282,2269,11,8,-61,117,113,-61,0
66,-68,4285,2271,15,9,-61,117,113,-61,0
45,-68,4278,2266,29,5,-61,117,113,-61,0
56,-81,4290,2259,27,4,-61,117,113,-61,0
51,-57,4270,2260,21,9,-52,122,112,-52,1
48,-65,4287,2246,18,5,-52,122,112,-52,0
41,-53,4291,2258,9,12,-52,122,112,-52,0
38,-71,4298,2257,21,9,-52,122,112,-52,0
45,-72,4282,2266,23,5,-52,122,112,-52,0
49,-76,4299,2263,17,5,-64,114,110,-64,1
63,-67,4317,2266,18,-1,-64,114,110,-64,0
65,-58,4290,2278,19,6,-64,114,110,-64,0
55,-68,4277,2286,24,7,-64,114,110,-64,0
55,-63,4288,2281,21,7,-64,114,110,-64,0
51,-60,4297,2279,17,6,-62,116,110,-62,1
63,-57,4294,2270,18,3,-62,116,110,-62,0
57,-66,4293,2264,19,3,-62,116,110,-62,0
31,-58,4285,2257,19,8,-62,116,110,-62,0
65,-69,4277,2260,18,6,-62,116,110,-62,0
61,-72,4283,2267,10,6,-60,112,110,-60,1
63,-83,4303,2261,18,5,-60,112,110,-60,0
51,-66,4288,2259,21,8,-60,112,110,-60,0
56,-61,4309,2267,12,7,-60,112,110,-60,0
53,-81,4280,2268,14,0,-60,112,110,-60,0
44,-60,4310,2258,20,-3,-67,115,111,-67,1
63,-76,4267,2256,19,5,-67,115,111,-67,0
43,-85,4292,2271,23,7,-67,115,111,-67,0
49,-57,4281,2277,16,8,-67,115,111,-67,0
38,-57,4284,2272,15,6,-67,115,111,-67,0
34,-51,4275,2273,14,4,-63,115,117,-63,1
33,-58,4273,2262,16,2,-63,115,117,-63,0
53,-60,4276,2257,16,1,-63,115,117,-63,0
52,-77,4279,2278,18,1,-63,115,117,-63,0
37,-64,4320,2269,22,1,-63,115,117,-63,0
55,-81,4305,2271,24,10,-64,114,112,-64,1
40,-60,4282,2277,24,13,-64,114,112,-64,0
66,-66,4286,2267,16,3,-64,114,112,-64,0
55,-54,4269,2272,16,1,-64,114,112,-64,0
63,-67,4265,2267,18,2,-64,114,112,-64,0
61,-61,4274,2276,21,6,-61,119,117,-61,1
39,-56,4276,2253,20,0,-61,119,117,-61,0
56,-73,4315,2268,18,1,-61,119,117,-61,0
35,-64,4291,2262,18,4,-61,119,117,-61,0
25,-84,4275,2265,18,5,-61,119,117,-61,0
67,-50,4289,2256,20,5,-54,116,114,-54,1
40,-80,4282,2254,15,3,-54,116,114,-54,0
34,-68,4278,2263,19,2,-54,116,114,-54,0
52,-74,4284,2271,26,7,-54,116,114,-54,0
58,-69,4293,2269,21,2,-54,116,114,-54,0
52,-68,4291,2274,23,-1,-65,121,115,-65,1
38,-76,4268,2267,17,4,-65,121,115,-65,0
40,-63,4310,2261,16,6,-65,121,115,-65,0
56,-69,4282,2268,20,2,-65,121,115,-65,0
49,-64,4276,2260,17,-1,-65,121,115,-65,0
63,-66,4279,2258,16,5,-68,118,114,-68,1
45,-70,4275,2256,14,13,-68,118,114,-68,0
39,-72,4261,2261,15,5,-68,118,114,-68,0
43,-65,4298,2272,17,5,-68,118,114,-68,0
56,-63,4275,2260,20,7,-68,118,114,-68,0
49,-57,4291,2263,20,7,-67,117,111,-67,1
41,-69,4307,2271,20,6,-67,117,111,-67,0
56,-72,4274,2259,18,4,-67,117,111,-67,0
53,-67,4288,2264,18,8,-67,117,111,-67,0
39,-65,4271,2255,14,9,-67,117,111,-67,0
45,-69,4302,2265,16,6,-67,117,111,-67,0
50,-63,4301,2259,17,8,-67,117,111,-67,0
65,-64,4294,2253,21,6,-67,117,111,-67,0
36,-64,4306,2269,19,5,-67,117,111,-67,0
55,-66,4297,2277,24,3,-67,117,111,-67,0
52,-65,4297,2276,22,1,-67,117,111,-67,0
47,-59,4298,2276,18,1,-66,118,112,-66,1
54,-52,4276,2264,15,9,-66,118,112,-66,0
49,-60,4291,2262,22,8,-66,118,112,-66,0
52,-48,4274,2287,16,1,-66,118,112,-66,0
43,-55,4302,2266,15,1,-66,118,112,-66,0
52,-57,4230,2273,18,5,-70,122,112,-70,1
47,-64,4287,2278,22,6,-70,122,112,-70,0
44,-62,4295,2269,18,5,-70,122,112,-70,0
52,-71,4298,2268,16,8,-70,122,112,-70,0
70,-65,4265,2258,17,7,-65,123,111,-65,1
55,-70,4273,2264,18,6,-65,123,111,-65,1
55,-57,4291,2284,12,2,-65,123,111,-65,0
35,-64,4294,2270,12,3,-65,123,111,-65,0
33,-81,4277,2258,13,8,-65,123,111,-65,0
45,-52,4296,2257,12,7,-65,123,111,-65,0
38,-54,4274,2267,14,3,-59,121,107,-59,1
39,-64,4290,2278,17,-2,-59,121,107,-59,0
56,-63,4297,2265,15,2,-59,121,107,-59,0
55,-78,4261,2255,13,6,-59,121,107,-59,0
59,-59,4277,2265,23,5,-59,121,107,-59,0
33,-71,4302,2261,19,4,-58,120,110,-58,1
63,-60,4284,2263,25,0,-58,120,110,-58,0
41,-75,4274,2268,18,4,-58,120,110,-58,0
45,-60,4295,2280,17,7,-58,120,110,-58,0
53,-85,4284,2268,21,3,-58,120,110,-58,0
37,-75,4262,2262,15,-1,-59,127,113,-59,1
39,-70,4264,2251,21,4,-59,127,113,-59,0
42,-62,4295,2266,19,9,-59,127,113,-59,0
51,-65,4309,2285,23,5,-59,127,113,-59,0
47,-77,4296,2281,21,4,-59,127,113,-59,0
61,-82,4301,2259,17,3,-67,117,109,-67,0
40,-65,4278,2271,16,4,-67,117,109,-67,0
39,-68,4271,2268,13,7,-67,117,109,-67,0
65,-66,4291,2258,19,5,-67,117,109,-67,0
40,-70,4316,2252,21,3,-67,117,109,-67,0
39,-80,4265,2260,21,6,-68,118,114,-68,1
55,-72,4274,2272,20,4,-68,118,114,-68,0
39,-56,4282,2269,15,6,-68,118,114,-68,0
45,-66,4289,2266,14,8,-68,118,114,-68,0
47,-54,4297,2267,17,4,-68,118,114,-68,0
42,-81,4294,2261,18,3,-58,120,118,-58,1
39,-52,4304,2261,19,5,-58,120,118,-58,0
59,-54,4253,2263,22,8,-58,120,118,-58,0
51,-80,4268,2265,23,9,-58,120,118,-58,0
44,-65,4269,2259,15,1,-58,120,118,-58,0
33,-77,4292,2269,15,1,-56,114,114,-56,1
35,-66,4261,2265,19,5,-56,114,114,-56,0
51,-62,4271,2263,16,8,-56,114,114,-56,0
45,-53,4281,2264,16,5,-56,114,114,-56,0
46,-62,4323,2256,20,8,-56,114,114,-56,0
54,-50,4271,2262,20,8,-60,112,116,-60,1
51,-61,4257,2266,17,3,-60,112,116,-60,0
50,-50,4302,2268,25,0,-60,112,116,-60,0
67,-79,4295,2258,24,4,-60,112,116,-60,0
44,-72,4290,2274,23,2,-60,112,116,-60,0
64,-68,4276,2271,21,3,-64,114,114,-64,1
47,-60,4324,2268,17,8,-64,114,114,-64,0
47,-76,4304,2262,16,6,-64,114,114,-64,0
42,-66,4295,2250,14,6,-64,114,114,-64,0
50,-65,4282,2267,19,4,-64,114,114,-64,0
60,-68,4287,2269,20,0,-63,111,115,-63,1
56,-60,4274,2258,20,3,-63,111,115,-63,0
46,-71,4293,2252,23,4,-63,111,115,-63,0
44,-52,4258,2270,21,2,-63,111,115,-63,0
50,-65,4283,2268,18,2,-63,111,115,-63,0
44,-67,4300,2254,18,4,-57,115,113,-57,0
62,-63,4277,2259,20,7,-57,115,113,-57,0
45,-77,4287,2258,12,1,-57,115,113,-57,0
36,-69,4305,2277,15,-5,-57,115,113,-57,0
39,-64,4281,2272,21,3,-57,115,113,-57,0
45,-94,4290,2260,21,4,-64,116,110,-64,1
47,-69,4302,2254,14,4,-64,116,110,-64,0
59,-56,4284,2274,18,10,-64,116,110,-64,0
58,-61,4282,2275,23,9,-64,116,110,-64,0
49,-72,4270,2291,22,3,-64,116,110,-64,0
56,-62,4253,2279,22,4,-57,115,117,-57,1
38,-75,4304,2261,16,9,-57,115,117,-57,0
46,-61,4282,2259,19,-2,-57,115,117,-57,0
42,-73,4285,2261,22,1,-57,115,117,-57,0
35,-95,4303,2267,17,4,-57,115,117,-57,0
44,-63,4268,2273,20,7,-62,120,112,-62,1
50,-64,4299,2268,14,7,-62,120,112,-62,0
55,-48,4279,2261,14,-1,-62,120,112,-62,0
40,-78,4312,2268,22,5,-62,120,112,-62,0
40,-58,4248,2264,14,2,-62,120,112,-62,0
42,-52,4304,2265,17,1,-62,120,112,-62,0
50,-70,4271,2263,14,6,-62,120,112,-62,0
59,-70,4293,2265,12,9,-62,120,112,-62,0
57,-69,4298,2268,18,8,-62,120,112,-62,0
26,-59,4285,2272,21,5,-62,120,112,-62,0
43,-68,4300,2261,16,3,-62,120,112,-62,0
57,-69,4304,2260,13,5,-65,117,111,-65,1
46,-58,4300,2269,20,2,-65,117,111,-65,0
30,-68,4287,2277,25,4,-65,117,111,-65,0
43,-64,4301,2277,20,5,-65,117,111,-65,0
63,-64,4305,2265,18,9,-65,117,111,-65,0
64,-81,4284,2265,18,7,-63,113,111,-63,1
69,-55,4302,2272,17,6,-63,113,111,-63,0
37,-71,4304,2273,16,3,-63,113,111,-63,0
41,-69,4282,2279,22,1,-63,113,111,-63,0
46,-59,4279,2268,21,2,-63,119,111,-63,1
36,-63,4284,2263,16,-5,-59,119,119,-59,1
51,-59,4273,2271,22,-3,-59,119,119,-59,0
56,-66,4308,2275,19,2,-59,119,119,-59,0
51,-76,4289,2274,18,3,-59,119,119,-59,0
31,-62,4295,2266,20,4,-59,119,119,-59,0
67,-76,4276,2274,16,13,-66,112,116,-66,1
47,-69,4279,2268,21,13,-66,112,116,-66,0
52,-67,4294,2262,20,0,-66,112,116,-66,0
49,-87,4289,2271,17,-1,-66,112,116,-66,0
49,-75,4298,2272,15,3,-66,112,116,-66,0
53,-47,4272,2266,19,9,-62,116,114,-62,1
41,-91,4287,2259,22,5,-62,116,114,-62,0
64,-73,4302,2262,20,2,-62,116,114,-62,0
52,-63,4285,2270,13,8,-62,116,114,-62,0
48,-50,4283,2265,15,8,-62,116,114,-62,0
55,-65,4298,2258,15,5,-59,119,109,-59,1
45,-64,4290,2254,19,9,-59,119,109,-59,0
48,-58,4281,2269,18,7,-59,119,109,-59,0
45,-64,4288,2261,24,4,-59,119,109,-59,0
47,-63,4310,2257,23,6,-59,119,109,-59,0
52,-54,4313,2258,16,2,-60,122,110,-60,1
59,-64,4263,2270,22,3,-60,122,110,-60,0
48,-61,4314,2267,22,3,-60,122,110,-60,0
40,-74,4288,2260,21,5,-60,122,110,-60,0
46,-59,4285,2256,21,2,-60,122,110,-60,0
58,-60,4273,2246,16,0,-62,116,120,-62,1
37,-78,4293,2259,19,-4,-62,116,120,-62,0
43,-46,4297,2265,19,1,-62,116,120,-62,0
56,-53,4322,2261,17,3,-62,116,120,-62,0
32,-67,4269,2265,19,10,-62,116,120,-62,0
59,-84,4295,2275,14,5,-59,119,107,-59,1
53,-66,4284,2267,15,0,-59,119,107,-59,0
61,-71,4272,2254,16,10,-59,119,107,-59,0
22,-74,4268,2263,23,6,-59,119,107,-59,0
57,-56,4301,2271,22,-3,-59,119,107,-59,0
67,-67,4297,2278,17,-1,-61,117,113,-61,1
44,-59,4281,2271,21,4,-61,117,113,-61,0
48,-77,4274,2262,20,1,-61,117,113,-61,0
56,-60,4305,2267,19,7,-61,117,113,-61,0
40,-59,4295,2268,18,6,-60,122,108,-60,1
49,-57,4304,2267,18,4,-60,122,108,-60,1
59,-68,4302,2267,25,2,-60,122,108,-60,0
46,-67,4290,2272,19,3,-60,122,108,-60,0
39,-85,4274,2270,20,4,-60,122,108,-60,0
59,-70,4280,2266,18,3,-60,122,108,-60,0
37,-51,4274,2258,20,5,-49,115,109,-49,1
48,-74,4280,2276,18,9,-49,115,109,-49,0
53,-49,4270,2270,13,7,-49,115,109,-49,0
51,-63,4287,2271,17,8,-49,115,109,-49,0
59,-76,4279,2274,21,5,-49,115,109,-49,0
46,-56,4291,2262,18,3,-58,118,112,-58,1
49,-71,4283,2271,19,-1,-58,118,112,-58,0
60,-60,4278,2260,17,1,-58,118,112,-58,0
63,-69,4290,2277,23,3,-58,118,112,-58,0
38,-69,4289,2277,14,7,-58,118,112,-58,0
50,-77,4314,2281,17,5,-61,119,115,-61,1
33,-64,4290,2269,21,5,-61,119,115,-61,0
35,-47,4290,2274,19,8,-61,119,115,-61,0
54,-67,4278,2275,19,9,-61,119,115,-61,0
43,-73,4270,2276,17,8,-61,119,115,-61,0
56,-75,4310,2279,18,11,-57,121,113,-57,1
36,-58,4274,2269,21,4,-57,121,113,-57,0
59,-80,4278,2276,21,3,-57,121,113,-57,0
56,-66,4297,2268,19,9,-57,121,113,-57,0
34,-82,4324,2251,19,11,-57,121,113,-57,0
49,-63,4297,2271,19,5,-57,119,113,-57,1
65,-66,4287,2267,21,5,-57,119,113,-57,0
45,-71,4281,2278,22,4,-57,119,113,-57,0
48,-63,4281,2277,20,4,-57,119,113,-57,0
37,-72,4287,2286,18,3,-57,119,113,-57,0
39,-83,4279,2272,13,-1,-67,113,117,-67,1
47,-63,4309,2269,17,1,-67,113,117,-67,0
48,-67,4273,2271,23,7,-67,113,117,-67,0
45,-53,4297,2271,21,3,-67,113,117,-67,0
51,-58,4301,2259,21,-1,-67,113,117,-67,0
60,-64,4268,2259,17,5,-67,113,117,-67,0
67,-63,4276,2260,16,4,-67,113,117,-67,0
48,-67,4289,2269,15,2,-67,113,117,-67,0
42,-80,4289,2276,14,4,-67,113,117,-67,0
44,-58,4309,2271,18,8,-67,113,117,-67,0
38,-51,4301,2256,18,1,-67,113,117,-67,0
66,-66,4305,2268,15,4,-57,115,109,-57,1
61,-89,4282,2272,19,7,-57,115,109,-57,0
41,-56,4273,2273,20,8,-57,115,109,-57,0
26,-61,4284,2283,17,6,-57,115,109,-57,0
53,-66,4300,2267,19,3,-57,115,109,-57,0
48,-71,4277,2274,18,7,-55,123,115,-55,1
48,-68,4278,2270,16,10,-55,123,115,-55,0
40,-64,4307,2269,20,8,-55,123,115,-55,0
37,-65,4295,2258,23,7,-55,123,115,-55,0
50,-73,4296,2279,19,9,-55,123,115,-55,0
43,-67,4290,2269,18,9,-56,118,110,-56,1
57,-63,4300,2259,19,4,-56,118,110,-56,0
32,-67,4285,2275,20,7,-56,118,110,-56,0
50,-77,4290,2273,15,1,-56,118,110,-56,0
51,-61,4263,2267,13,3,-56,118,110,-56,0
45,-68,4301,2261,15,4,-63,121,119,-63,1
49,-71,4289,2256,20,4,-63,121,119,-63,0
60,-76,4273,2258,22,3,-63,121,119,-63,0
49,-76,4249,2260,21,1,-63,121,119,-63,0
44,-67,4277,2269,13,5,-63,121,119,-63,0
32,-72,4298,2273,16,4,-70,110,108,-70,1
51,-79,4272,2282,19,2,-70,110,108,-70,0
51,-71,4270,2286,19,-1,-70,110,108,-70,0
65,-77,4296,2264,18,4,-70,110,108,-70,0
53,-73,4301,2257,20,7,-70,110,108,-70,0
62,-55,4303,2267,19,2,-69,113,117,-69,1
53,-67,4279,2275,17,0,-69,113,117,-69,0
46,-92,4271,2276,14,0,-69,113,117,-69,0
58,-70,4276,2267,15,2,-69,113,117,-69,0
49,-51,4295,2267,15,2,-69,113,117,-69,0
46,-66,4285,2284,20,5,-65,117,117,-65,1
44,-75,4258,2270,22,4,-65,117,117,-65,0
52,-72,4288,2264,20,3,-65,117,117,-65,0
59,-80,4303,2264,18,6,-65,117,117,-65,0
51,-61,4274,2267,22,4,-65,117,117,-65,0
42,-67,4261,2261,22,7,-59,117,115,-59,1
61,-62,4304,2267,21,10,-59,117,115,-59,0
47,-64,4308,2279,18,3,-59,117,115,-59,0
64,-62,4289,2271,18,3,-59,117,115,-59,0
54,-66,4274,2269,26,7,-59,117,115,-59,0
57,-64,4271,2268,21,5,-61,121,113,-61,1
46,-66,4266,2261,23,4,-61,121,113,-61,0
55,-61,4291,2281,21,7,-61,121,113,-61,0
53,-72,4335,2273,20,4,-61,121,113,-61,0
38,-82,4262,2273,22,2,-61,121,113,-61,0
56,-72,4244,2266,20,5,-64,118,114,-64,1
46,-71,4304,2271,18,6,-64,118,114,-64,0
52,-52,4303,2282,23,4,-64,118,114,-64,0
64,-51,4284,2274,22,4,-64,118,114,-64,0
56,-65,4266,2291,18,5,-64,118,114,-64,0
62,-69,4307,2279,15,7,-65,121,115,-65,1
46,-67,4302,2270,15,4,-65,121,115,-65,0
47,-89,4274,2262,17,-2,-65,121,115,-65,0
72,-60,4296,2256,16,2,-65,121,115,-65,0
58,-60,4286,2271,17,3,-58,116,112,-58,1
47,-59,4292,2275,17,1,-58,116,112,-58,1
54,-63,4274,2271,17,1,-58,116,112,-58,0
56,-66,4311,2270,20,7,-58,116,112,-58,0
52,-77,4256,2272,15,6,-58,116,112,-58,0
45,-56,4252,2271,17,8,-58,116,112,-58,0
30,-52,4287,2276,18,10,-63,121,119,-63,1
52,-72,4300,2281,19,-1,-63,121,119,-63,0
42,-66,4293,2275,15,5,-63,121,119,-63,0
48,-76,4298,2267,15,2,-63,121,119,-63,0
48,-48,4256,2260,18,0,-63,121,119,-63,0
37,-65,4287,2266,17,1,-64,116,120,-64,1
56,-79,4283,2258,19,1,-64,116,120,-64,0
35,-55,4288,2262,17,5,-64,116,120,-64,0
57,-59,4286,2268,20,5,-64,116,120,-64,0
41,-66,4259,2275,20,5,-64,116,120,-64,0
44,-63,4288,2271,15,6,-61,111,115,-61,1
60,-68,4270,2272,15,-1,-61,111,115,-61,0
51,-58,4307,2270,22,-1,-61,111,115,-61,0
45,-65,4314,2254,15,-2,-61,111,115,-61,0
51,-71,4286,2263,16,0,-61,111,115,-61,0
41,-79,4269,2277,15,4,-67,127,111,-67,1
53,-67,4296,2273,17,1,-67,127,111,-67,0
65,-58,4300,2271,17,-1,-67,127,111,-67,0
46,-62,4264,2281,18,5,-67,127,111,-67,0
47,-67,4295,2253,23,1,-67,127,111,-67,0
47,-65,4289,2262,21,4,-65,119,107,-65,0
52,-67,4303,2254,19,6,-65,119,107,-65,0
46,-85,4271,2262,22,12,-65,119,107,-65,0
58,-79,4301,2277,16,4,-65,119,107,-65,0
60,-66,4271,2264,20,2,-65,119,107,-65,0
38,-64,4283,2261,18,0,-65,119,107,-65,0
47,-78,4279,2275,18,4,-65,119,107,-65,0
49,-64,4279,2260,17,6,-65,119,107,-65,0
64,-60,4289,2262,16,4,-65,119,107,-65,0
40,-78,4267,2275,17,2,-65,119,107,-65,0
59,-76,4275,2282,19,1,-65,119,107,-65,0
50,-62,4299,2269,20,3,-59,119,113,-59,1
53,-73,4302,2270,22,3,-59,119,113,-59,0
54,-87,4295,2269,22,3,-59,119,113,-59,0
34,-76,4282,2264,18,-2,-59,119,113,-59,0
31,-53,4313,2268,22,-1,-59,119,113,-59,0
45,-46,4281,2274,23,7,-63,121,109,-63,1
56,-54,4301,2269,15,6,-63,121,109,-63,0
44,-57,4299,2273,18,2,-63,121,109,-63,0
45,-62,4285,2274,16,3,-63,121,109,-63,0
51,-69,4290,2271,14,4,-63,121,109,-63,0
59,-62,4301,2264,20,-1,-62,112,108,-62,1
47,-51,4288,2270,19,1,-62,112,108,-62,0
36,-62,4281,2274,13,7,-62,112,108,-62,0
38,-70,4301,2266,18,3,-62,112,108,-62,0
56,-63,4276,2271,21,8,-62,112,108,-62,0
55,-68,4289,2271,23,5,-61,113,107,-61,1
50,-78,4277,2275,19,4,-61,113,107,-61,0
53,-72,4300,2283,20,-3,-61,113,107,-61,0
43,-63,4252,2274,21,-2,-61,113,107,-61,0
51,-68,4298,2261,22,6,-61,113,107,-61,0
43,-59,4266,2273,18,6,-58,120,114,-58,1
55,-69,4295,2273,21,7,-58,120,114,-58,0
44,-64,4261,2249,19,8,-58,120,114,-58,0
46,-60,4276,2265,18,5,-58,120,114,-58,0
53,-73,4287,2272,20,3,-58,120,114,-58,0
53,-92,4302,2265,17,3,-60,122,114,-60,1
64,-54,4272,2270,20,2,-60,122,114,-60,0
47,-57,4305,2278,17,2,-60,122,114,-60,0
45,-68,4292,2271,17,3,-60,122,114,-60,0
68,-70,4282,2257,17,6,-60,122,114,-60,0
55,-70,4264,2272,19,-2,-63,115,117,-63,1
53,-73,4309,2259,21,3,-63,115,117,-63,0
47,-57,4298,2289,22,10,-63,115,117,-63,0
47,-74,4305,2280,18,7,-63,115,117,-63,0
46,-64,4294,2272,19,4,-63,115,117,-63,0
50,-59,4312,2262,21,7,-60,116,112,-60,1
65,-58,4292,2270,22,12,-60,116,112,-60,0
45,-67,4301,2267,20,10,-60,116,112,-60,0
44,-77,4306,2267,18,6,-60,116,112,-60,0
51,-71,4295,2269,15,4,-60,116,112,-60,0
51,-62,4315,2252,19,4,-66,116,114,-66,1
53,-65,4274,2282,21,4,-66,116,114,-66,0
29,-67,4295,2269,20,4,-66,116,114,-66,0
41,-62,4293,2260,24,4,-66,116,114,-66,0
58,-82,4300,2267,17,2,-66,116,114,-66,0
32,-65,4282,2260,16,6,-58,124,116,-58,1
59,-69,4311,2262,19,6,-58,124,116,-58,0
51,-68,4286,2265,19,5,-58,124,116,-58,0
36,-72,4286,2266,16,3,-58,124,116,-58,0
56,-63,4290,2266,20,-1,-58,110,114,-58,1
44,-71,4288,2281,20,-3,-54,110,114,-54,1
46,-68,4291,2288,20,-3,-54,110,114,-54,0
47,-69,4281,2256,25,-3,-54,110,114,-54,0
60,-64,4302,2257,16,5,-54,110,114,-54,0
43,-61,4300,2265,15,7,-54,110,114,-54,0
58,-67,4285,2270,22,10,-60,112,114,-60,1
46,-66,4279,2269,19,11,-60,112,114,-60,0
43,-69,4272,2274,17,3,-60,112,114,-60,0
54,-68,4310,2284,17,4,-60,112,114,-60,0
50,-61,4304,2268,17,0,-60,112,114,-60,0
33,-65,4282,2274,18,1,-67,113,113,-67,1
49,-82,4284,2266,16,6,-67,113,113,-67,0
63,-56,4276,2273,16,12,-67,113,113,-67,0
60,-63,4269,2266,23,6,-67,113,113,-67,0
66,-68,4279,2270,22,0,-67,113,113,-67,0
61,-74,4314,2272,17,4,-62,116,120,-62,1
43,-65,4289,2268,21,8,-62,116,120,-62,0
49,-68,4306,2261,25,6,-62,116,120,-62,0
45,-68,4281,2268,19,4,-62,116,120,-62,0
53,-67,4285,2276,19,-2,-62,116,120,-62,0
54,-73,4275,2276,20,0,-68,124,112,-68,1
36,-62,4274,2282,18,6,-68,124,112,-68,0
38,-65,4289,2270,18,3,-68,124,112,-68,0
49,-64,4270,2276,25,6,-68,124,112,-68,0
62,-70,4296,2270,19,3,-68,124,112,-68,0
71,-57,4289,2276,15,5,-64,116,114,-64,1
58,-66,4286,2271,25,6,-64,116,114,-64,0
45,-59,4275,2282,20,8,-64,116,114,-64,0
52,-43,4290,2272,19,3,-64,116,114,-64,0
29,-58,4282,2264,19,1,-64,116,114,-64,0
49,-71,4280,2265,17,1,-64,116,114,-64,0
47,-64,4261,2283,17,4,-64,116,114,-64,0
49,-66,4304,2262,17,6,-64,116,114,-64,0
53,-66,4300,2275,21,3,-64,116,114,-64,0
61,-62,4310,2275,21,4,-64,116,114,-64,0
57,-72,4286,2273,16,4,-64,116,114,-64,0
44,-48,4269,2273,18,-3,-62,118,110,-62,0
53,-66,4312,2254,27,2,-62,118,110,-62,0
55,-58,4279,2273,20,4,-62,118,110,-62,0
45,-76,4306,2266,15,-1,-62,118,110,-62,0
55,-54,4276,2265,19,0,-62,118,110,-62,0
44,-72,4301,2266,21,0,-63,115,117,-63,1
43,-80,4300,2270,15,5,-63,115,117,-63,0
43,-70,4291,2279,20,3,-63,115,117,-63,0
47,-76,4280,2265,20,5,-63,115,117,-63,0
50,-68,4282,2268,23,8,-63,115,117,-63,0
53,-72,4293,2268,22,8,-59,123,109,-59,1
53,-80,4266,2283,21,3,-59,123,109,-59,0
45,-69,4223,2282,17,-1,-59,123,109,-59,0
53,-81,4302,2278,19,2,-59,123,109,-59,0
48,-78,4273,2272,23,6,-59,123,109,-59,0
43,-64,4286,2273,22,5,-72,120,112,-72,0
62,-52,4287,2278,23,8,-72,120,112,-72,0
52,-62,4272,2265,25,0,-72,120,112,-72,0
43,-52,4305,2269,20,-4,-72,120,112,-72,0
54,-84,4288,2267,23,1,-72,120,112,-72,0
39,-69,4280,2274,22,1,-60,120,118,-60,1
36,-63,4310,2276,18,5,-60,120,118,-60,0
40,-67,4275,2289,19,7,-60,120,118,-60,0
44,-81,4295,2266,18,4,-60,120,118,-60,0
49,-64,4303,2267,16,1,-60,120,118,-60,0
43,-70,4299,2267,19,5,-57,119,117,-57,1
48,-73,4269,2262,15,4,-57,119,117,-57,0
58,-80,4297,2276,16,3,-57,119,117,-57,0
41,-74,4286,2265,19,-2,-57,119,117,-57,0
51,-54,4288,2264,14,2,-57,119,117,-57,0
40,-89,4288,2275,19,7,-62,120,112,-62,1
34,-69,4297,2274,20,6,-62,120,112,-62,0
41,-64,4262,2274,20,2,-62,120,112,-62,0
33,-70,4289,2274,21,-3,-62,120,112,-62,0
44,-71,4287,2271,18,7,-62,120,112,-62,0
44,-72,4286,2264,16,7,-64,114,114,-64,1
35,-80,4285,2261,16,3,-64,114,114,-64,0
48,-62,4280,2260,21,2,-64,114,114,-64,0
46,-55,4282,2280,23,11,-64,114,114,-64,0
29,-40,4306,2279,25,6,-64,114,114,-64,0
56,-74,4284,2276,21,1,-58,114,114,-58,1
30,-67,4287,2273,17,3,-58,114,114,-58,0
52,-72,4292,2284,12,2,-58,114,114,-58,0
57,-45,4287,2271,17,1,-58,114,114,-58,0
51,-37,4287,2269,15,0,-58,114,114,-58,0
40,-60,4257,2273,13,4,-57,115,107,-57,1
54,-59,4284,2280,17,4,-57,115,107,-57,0
46,-65,4304,2280,23,4,-57,115,107,-57,0
46,-65,4267,2273,17,3,-57,115,107,-57,0
45,-69,4271,2259,10,5,-57,115,107,-57,0
50,-71,4284,2264,16,0,-63,115,115,-63,1
57,-76,4283,2269,19,3,-63,115,115,-63,0
48,-71,4276,2276,15,8,-63,115,115,-63,0
59,-58,4289,2269,20,4,-63,115,115,-63,0
53,-53,4286,2277,19,5,-63,115,115,-63,0
37,-48,4249,2278,22,6,-59,111,111,-59,1
42,-77,4302,2262,25,0,-59,111,111,-59,0
43,-77,4287,2265,20,0,-59,111,111,-59,0
42,-65,4270,2266,16,6,-59,111,111,-59,0
43,-58,4273,2260,24,7,-59,111,111,-59,0
34,-70,4253,2262,20,-1,-65,121,111,-65,1
49,-71,4303,2265,21,-1,-65,121,111,-65,0
49,-66,4285,2252,17,-2,-65,121,111,-65,0
17,-68,4277,2273,13,3,-65,121,111,-65,0
49,-74,4263,2282,20,5,-65,121,111,-65,0
47,-69,4299,2266,20,4,-57,109,109,-57,0
55,-64,4277,2277,17,1,-57,109,109,-57,0
53,-66,4298,2265,19,3,-57,109,109,-57,0
45,-54,4292,2280,20,0,-57,109,109,-57,0
53,-74,4288,2281,18,0,-57,109,109,-57,0
59,-68,4298,2278,18,5,-69,113,119,-69,0
39,-84,4307,2265,21,3,-69,113,119,-69,0
48,-54,4273,2263,21,2,-69,113,119,-69,0
37,-74,4293,2269,20,1,-69,113,119,-69,0
72,-58,4271,2266,19,-1,-69,113,119,-69,0
51,-71,4267,2271,21,3,-60,116,114,-60,0
51,-65,4269,2273,21,8,-60,116,114,-60,0
46,-53,4289,2271,18,8,-60,116,114,-60,0
49,-47,4273,2268,15,6,-60,116,114,-60,0
63,-58,4276,2264,15,5,-60,116,114,-60,0
42,-63,4268,2265,18,2,-60,114,118,-60,1
49,-76,4292,2266,20,7,-60,114,118,-60,0
29,-50,4284,2275,21,6,-60,114,118,-60,0
60,-89,4277,2254,20,6,-60,114,118,-60,0
48,-82,4301,2269,18,4,-60,114,118,-60,0
50,-67,4306,2275,16,11,-60,114,118,-60,0
53,-56,4281,2265,21,6,-60,114,118,-60,0
42,-72,4282,2272,20,2,-60,114,118,-60,0
36,-72,4288,2280,14,2,-60,114,118,-60,0
43,-59,4260,2276,17,1,-60,114,118,-60,0
50,-73,4292,2277,18,4,-60,114,118,-60,0
56,-77,4273,2284,17,3,-63,117,109,-63,1
49,-62,4273,2279,23,6,-63,117,109,-63,0
38,-64,4283,2281,19,-1,-63,117,109,-63,0
50,-60,4249,2284,18,-2,-63,117,109,-63,0
64,-77,4287,2272,17,1,-63,117,109,-63,0
52,-67,4297,2267,20,0,-59,123,115,-59,1
49,-55,4276,2258,21,0,-59,123,115,-59,0
49,-67,4290,2281,18,3,-59,123,115,-59,0
58,-46,4285,2286,17,2,-59,123,115,-59,0
42,-51,4300,2285,22,-1,-59,123,115,-59,0
59,-68,4285,2270,21,4,-61,115,115,-61,1
66,-55,4291,2269,20,2,-61,115,115,-61,0
42,-44,4293,2273,17,6,-61,115,115,-61,0
52,-68,4273,2278,17,8,-61,115,115,-61,0
61,-75,4275,2273,19,7,-61,115,115,-61,0
42,-71,4306,2291,23,8,-63,121,113,-63,1
41,-67,4295,2268,26,5,-63,121,113,-63,0
42,-68,4283,2282,23,3,-63,121,113,-63,0
55,-80,4319,2265,22,7,-63,121,113,-63,0
48,-58,4279,2275,18,3,-63,121,113,-63,0
40,-59,4303,2276,21,11,-63,121,119,-63,1
45,-69,4276,2289,20,11,-63,121,119,-63,0
37,-73,4295,2277,24,4,-63,121,119,-63,0
50,-92,4285,2268,21,2,-63,121,119,-63,0
43,-65,4290,2271,23,1,-63,121,119,-63,0
39,-85,4268,2279,22,5,-61,117,113,-61,1
46,-59,4306,2272,18,6,-61,117,113,-61,0
48,-68,4286,2261,19,1,-61,117,113,-61,0
63,-56,4285,2257,23,1,-61,117,113,-61,0
51,-80,4289,2255,16,3,-61,117,113,-61,0
45,-72,4274,2263,20,5,-57,111,115,-57,1
46,-77,4307,2268,21,7,-57,111,115,-57,0
48,-68,4277,2271,14,5,-57,111,115,-57,0
47,-65,4280,2267,17,5,-57,111,115,-57,0
47,-82,4300,2275,23,5,-57,111,115,-57,0
55,-70,4288,2268,16,2,-52,114,114,-52,1
49,-70,4251,2264,14,5,-52,114,114,-52,0
68,-53,4282,2272,19,4,-52,114,114,-52,0
44,-54,4294,2267,23,4,-52,114,114,-52,0
61,-87,4292,2267,20,2,-63,113,113,-63,1
41,-80,4299,2271,19,-1,-63,113,113,-63,1
53,-69,4290,2271,16,0,-63,113,113,-63,0
39,-74,4263,2268,15,6,-63,113,113,-63,0
51,-75,4279,2268,16,6,-63,113,113,-63,0
41,-70,4291,2275,16,2,-63,113,113,-63,0
47,-69,4308,2264,18,10,-59,121,119,-59,1
43,-56,4301,2258,20,6,-59,121,119,-59,0
41,-80,4289,2270,19,7,-59,121,119,-59,0
55,-66,4289,2268,19,8,-59,121,119,-59,0
32,-59,4272,2274,26,4,-59,122,119,-59,1
39,-69,4292,2277,15,2,-68,122,106,-68,1
55,-71,4284,2268,18,8,-68,122,106,-68,0
60,-71,4268,2260,18,8,-68,122,106,-68,0
50,-77,4286,2251,15,7,-68,122,106,-68,0
58,-73,4284,2272,21,5,-68,122,106,-68,0
46,-70,4325,2282,21,0,-65,121,109,-65,1
45,-67,4289,2275,18,6,-65,121,109,-65,0
44,-60,4275,2268,19,12,-65,121,109,-65,0
60,-58,4270,2268,15,4,-65,121,109,-65,0
40,-51,4322,2264,11,10,-65,121,109,-65,0
39,-72,4284,2262,22,5,-61,117,119,-61,1
52,-66,4282,2269,23,2,-61,117,119,-61,0
60,-74,4276,2285,16,6,-61,117,119,-61,0
33,-65,4284,2267,14,1,-61,117,119,-61,0
52,-53,4270,2268,18,3,-61,117,119,-61,0
60,-64,4270,2276,22,1,-61,113,111,-61,1
34,-59,4309,2278,25,3,-61,113,111,-61,0
33,-56,4287,2273,23,2,-61,113,111,-61,0
47,-66,4278,2276,24,2,-61,113,111,-61,0
33,-72,4300,2280,21,4,-61,113,111,-61,0
29,-66,4278,2264,14,6,-63,119,115,-63,1
32,-52,4273,2277,14,4,-63,119,115,-63,0
44,-74,4283,2267,17,-4,-63,119,115,-63,0
38,-61,4267,2265,15,0,-63,119,115,-63,0
37,-71,4310,2275,25,4,-63,119,115,-63,0
59,-63,4296,2269,23,2,-65,117,111,-65,1
51,-67,4283,2262,21,3,-65,117,111,-65,0
54,-68,4266,2252,17,-3,-65,117,111,-65,0
51,-59,4309,2262,20,0,-65,117,111,-65,0
50,-83,4277,2259,19,9,-65,117,111,-65,0
53,-54,4273,2270,16,3,-65,117,111,-65,0
55,-65,4271,2277,18,-2,-65,117,111,-65,0
43,-66,4302,2275,17,4,-65,117,111,-65,0
59,-63,4274,2260,17,3,-65,117,111,-65,0
49,-72,4296,2264,23,6,-65,117,111,-65,0
47,-77,4271,2279,20,6,-65,117,111,-65,0
52,-55,4287,2267,23,1,-53,119,109,-53,1
56,-63,4259,2276,31,7,-53,119,109,-53,0
61,-64,4300,2284,23,3,-53,119,109,-53,0
51,-71,4297,2269,21,3,-53,119,109,-53,0
45,-69,4278,2266,19,6,-53,119,109,-53,0
47,-73,4309,2262,15,10,-61,113,113,-61,0
47,-62,4296,2271,16,0,-61,113,113,-61,0
62,-44,4288,2287,15,7,-61,113,113,-61,0
44,-52,4277,2276,15,8,-61,113,113,-61,0
38,-70,4296,2274,18,5,-61,113,113,-61,0
41,-69,4296,2278,16,2,-54,122,108,-54,1
44,-70,4295,2264,20,0,-54,122,108,-54,0
50,-62,4300,2272,24,2,-54,122,108,-54,0
49,-57,4306,2264,21,6,-54,122,108,-54,0
46,-50,4303,2264,20,8,-54,122,108,-54,0
56,-76,4280,2278,16,9,-60,114,108,-60,1
46,-64,4273,2275,15,2,-60,114,108,-60,0
53,-61,4261,2267,17,2,-60,114,108,-60,0
41,-62,4279,2263,20,7,-60,114,108,-60,0
36,-53,4294,2270,23,1,-60,114,108,-60,0
31,-69,4283,2283,21,2,-55,119,125,-55,1
56,-56,4281,2279,17,5,-55,119,125,-55,0
41,-71,4293,2270,22,1,-55,119,125,-55,0
52,-71,4290,2264,17,6,-55,119,125,-55,0
47,-65,4286,2266,20,6,-55,119,125,-55,0
45,-67,4274,2258,23,3,-60,116,118,-60,1
57,-63,4298,2289,22,9,-60,116,118,-60,0
51,-68,4276,2276,20,7,-60,116,118,-60,0
57,-57,4273,2265,18,-3,-60,116,118,-60,0
42,-73,4276,2277,16,4,-60,116,118,-60,0
46,-58,4304,2283,20,8,-57,113,115,-57,1
48,-63,4299,2272,20,4,-57,113,115,-57,0
36,-57,4288,2273,21,4,-57,113,115,-57,0
37,-73,4282,2280,13,3,-57,113,115,-57,0
44,-65,4311,2266,12,12,-57,113,115,-57,0
43,-61,4291,2269,17,7,-64,120,126,-64,1
40,-63,4297,2266,20,3,-64,120,126,-64,0
47,-66,4292,2273,16,-1,-64,120,126,-64,0
59,-59,4291,2268,16,-1,-64,120,126,-64,0
47,-62,4260,2289,19,3,-64,120,126,-64,0
65,-43,4287,2282,22,2,-61,121,107,-61,1
48,-86,4274,2273,26,0,-61,121,107,-61,0
39,-73,4290,2294,25,2,-61,121,107,-61,0
48,-91,4294,2274,17,3,-61,121,107,-61,0
51,-65,4278,2275,12,2,-61,121,107,-61,0
47,-65,4293,2270,24,4,-55,113,113,-55,0
40,-69,4266,2289,20,9,-55,113,113,-55,0
40,-68,4295,2273,20,5,-55,113,113,-55,0
38,-69,4275,2268,13,3,-55,113,113,-55,0
52,-71,4292,2266,15,2,-55,113,113,-55,0
54,-81,4293,2267,18,0,-59,113,109,-59,1
45,-57,4316,2273,17,0,-59,113,109,-59,0
44,-72,4302,2276,18,5,-59,113,109,-59,0
38,-60,4275,2270,21,-3,-59,113,109,-59,0
51,-59,4263,2262,14,1,-59,113,109,-59,0
49,-69,4284,2272,15,2,-61,121,115,-61,1
45,-62,4311,2259,20,0,-61,121,115,-61,0
49,-70,4273,2270,20,7,-61,121,115,-61,0
56,-71,4301,2273,17,2,-61,121,115,-61,0
37,-48,4288,2266,19,7,-61,121,115,-61,0
55,-80,4271,2266,18,4,-65,119,119,-65,1
45,-57,4247,2270,17,3,-65,119,119,-65,0
50,-73,4316,2273,18,6,-65,119,119,-65,0
55,-75,4290,2270,21,0,-65,119,119,-65,0
79,-52,4286,2262,22,7,-65,119,119,-65,0
22,-73,4270,2272,21,5,-68,108,108,-68,1
40,-71,4290,2287,15,-1,-68,108,108,-68,0
46,-75,4288,2285,16,0,-68,108,108,-68,0
47,-66,4249,2276,19,4,-68,108,108,-68,0
50,-69,4290,2266,16,6,-68,108,108,-68,0
50,-74,4272,2275,11,9,-68,120,118,-68,1
56,-73,4293,2273,18,0,-68,120,118,-68,0
49,-65,4266,2297,17,1,-68,120,118,-68,0
51,-64,4281,2286,20,2,-68,120,118,-68,0
41,-72,4289,2279,17,6,-68,120,118,-68,0
59,-82,4294,2277,19,8,-66,118,114,-66,1
29,-50,4270,2290,18,7,-66,118,114,-66,0
46,-48,4281,2284,19,2,-66,118,114,-66,0
47,-78,4276,2273,18,-1,-66,118,114,-66,0
51,-69,4280,2267,18,3,-61,121,121,-61,1
62,-62,4288,2258,19,5,-61,121,121,-61,1
61,-69,4279,2263,18,2,-61,121,121,-61,0
32,-60,4316,2263,16,2,-61,121,121,-61,0
53,-53,4278,2255,21,6,-61,121,121,-61,0
37,-68,4288,2277,21,4,-61,121,121,-61,0
51,-47,4282,2291,20,0,-61,121,121,-61,0
54,-83,4263,2276,18,6,-61,121,121,-61,0
45,-66,4300,2276,19,12,-61,121,121,-61,0
34,-72,4312,2285,22,8,-61,121,121,-61,0
51,-73,4248,2287,18,5,-61,121,121,-61,0
46,-65,4290,2268,17,4,-61,121,121,-61,0
56,-73,4274,2273,15,3,-58,122,118,-58,1
45,-68,4246,2295,15,1,-58,122,118,-58,0
55,-68,4261,2268,16,3,-58,122,118,-58,0
50,-53,4280,2272,17,0,-58,122,118,-58,0
64,-76,4267,2270,15,2,-58,122,118,-58,0
47,-76,4286,2269,11,3,-55,111,115,-55,0
60,-66,4288,2263,24,6,-55,111,115,-55,0
57,-59,4289,2262,21,7,-55,111,115,-55,0
43,-54,4259,2274,23,4,-55,111,115,-55,0
38,-50,4285,2283,21,7,-55,111,115,-55,0
34,-55,4267,2276,21,9,-65,119,113,-65,1
43,-80,4283,2266,18,6,-65,119,113,-65,0
67,-51,4286,2265,14,1,-65,119,113,-65,0
52,-69,4319,2269,17,3,-65,119,113,-65,0
46,-64,4294,2277,17,8,-65,119,113,-65,0
57,-86,4293,2282,13,7,-68,114,104,-68,1
50,-79,4290,2280,16,5,-68,114,104,-68,0
30,-57,4254,2274,15,5,-68,114,104,-68,0
45,-74,4289,2278,16,6,-68,114,104,-68,0
52,-58,4293,2264,13,8,-68,114,104,-68,0
49,-90,4277,2274,18,4,-58,114,116,-58,1
31,-71,4293,2277,22,3,-58,114,116,-58,0
56,-56,4276,2280,19,3,-58,114,116,-58,0
50,-79,4301,2266,14,3,-58,114,116,-58,0
45,-58,4278,2267,19,2,-58,114,116,-58,0
56,-67,4317,2260,17,2,-70,120,116,-70,1
54,-59,4285,2262,13,2,-70,120,116,-70,0
48,-81,4308,2288,20,6,-70,120,116,-70,0
46,-58,4277,2279,17,2,-70,120,116,-70,0
50,-72,4285,2277,20,4,-70,120,116,-70,0
55,-64,4274,2272,23,4,-63,117,111,-63,1
40,-73,4286,2273,14,4,-63,117,111,-63,0
61,-66,4299,2278,18,0,-63,117,111,-63,0
57,-86,4305,2268,20,0,-63,117,111,-63,0
45,-78,4308,2288,19,2,-63,117,111,-63,0
42,-60,4305,2273,13,-2,-59,117,115,-59,0
45,-61,4295,2277,16,3,-59,117,115,-59,0
62,-59,4296,2274,16,3,-59,117,115,-59,0
59,-67,4282,2283,17,1,-59,117,115,-59,0
49,-74,4289,2274,19,4,-56,116,108,-56,1
44,-62,4274,2289,22,4,-56,116,108,-56,1
62,-79,4299,2272,16,6,-56,116,108,-56,0
53,-59,4295,2280,17,2,-56,116,108,-56,0
51,-67,4322,2268,18,-1,-56,116,108,-56,0
47,-61,4308,2282,16,7,-56,116,108,-56,0
46,-87,4298,2282,19,2,-63,115,113,-63,1
71,-73,4287,2283,15,-2,-63,115,113,-63,0
62,-64,4303,2269,16,3,-63,115,113,-63,0
53,-70,4279,2282,15,0,-63,115,113,-63,0
38,-43,4319,2286,14,-1,-63,115,113,-63,0
39,-76,4286,2276,15,4,-66,118,110,-66,1
60,-65,4281,2274,20,3,-66,118,110,-66,0
40,-67,4307,2272,15,1,-66,118,110,-66,0
37,-63,4270,2277,18,6,-66,118,110,-66,0
48,-59,4303,2278,19,8,-66,118,110,-66,0
54,-60,4300,2263,16,3,-61,113,111,-61,1
33,-66,4278,2273,18,4,-61,113,111,-61,0
42,-60,4295,2268,19,8,-61,113,111,-61,0
48,-53,4261,2269,19,7,-61,113,111,-61,0
38,-80,4282,2271,20,5,-61,113,111,-61,0
62,-80,4282,2265,23,1,-68,118,116,-68,1
50,-67,4265,2281,19,-5,-68,118,116,-68,0
29,-68,4265,2272,16,2,-68,118,116,-68,0
34,-63,4279,2269,21,0,-68,118,116,-68,0
45,-58,4277,2267,19,1,-68,118,116,-68,0
52,-61,4270,2260,22,4,-60,114,114,-60,0
55,-77,4298,2268,21,8,-60,114,114,-60,0
45,-76,4283,2270,18,5,-60,114,114,-60,0
56,-89,4275,2278,19,5,-60,114,114,-60,0
50,-67,4303,2271,22,-2,-57,115,115,-57,1
54,-69,4294,2266,24,-3,-57,115,115,-57,1
59,-77,4289,2276,16,4,-57,115,115,-57,0
42,-77,4297,2275,12,2,-57,115,115,-57,0
45,-86,4279,2272,16,6,-57,115,115,-57,0
60,-88,4289,2275,21,6,-57,115,115,-57,0
61,-74,4277,2289,17,5,-62,122,116,-62,1
59,-72,4304,2281,15,6,-62,122,116,-62,0
55,-77,4265,2274,15,2,-62,122,116,-62,0
39,-75,4292,2278,18,4,-62,122,116,-62,0
52,-63,4306,2275,25,8,-62,122,116,-62,0
32,-72,4283,2281,17,7,-64,116,106,-64,1
49,-64,4256,2276,18,0,-64,116,106,-64,0
48,-56,4287,2270,22,3,-64,116,106,-64,0
55,-59,4276,2270,18,3,-64,116,106,-64,0
43,-58,4311,2269,15,2,-64,116,106,-64,0
46,-73,4296,2270,15,0,-64,116,106,-64,0
56,-70,4284,2282,23,1,-64,116,106,-64,0
51,-71,4258,2284,22,10,-64,116,106,-64,0
60,-71,4311,2275,24,8,-64,116,106,-64,0
47,-85,4292,2267,24,6,-64,116,106,-64,0
53,-83,4258,2270,19,4,-64,116,106,-64,0
49,-56,4269,2273,17,5,-58,122,112,-58,1
45,-72,4267,2263,9,4,-58,122,112,-58,0
36,-76,4270,2286,20,5,-58,122,112,-58,0
65,-82,4288,2275,19,8,-58,122,112,-58,0
37,-67,4290,2272,18,4,-58,122,112,-58,0
57,-74,4288,2271,13,3,-65,117,117,-65,1
47,-78,4295,2280,12,4,-65,117,117,-65,0
45,-61,4291,2273,21,2,-65,117,117,-65,0
47,-73,4276,2272,17,1,-65,117,117,-65,0
42,-62,4284,2283,14,1,-65,117,117,-65,0
40,-56,4288,2280,15,2,-53,123,119,-53,1
46,-52,4275,2282,14,-3,-53,123,119,-53,0
45,-72,4315,2289,19,-3,-53,123,119,-53,0
44,-72,4285,2283,17,3,-53,123,119,-53,0
48,-60,4289,2271,16,9,-53,123,119,-53,0
51,-60,4266,2260,18,10,-68,116,116,-68,1
46,-74,4279,2271,20,5,-68,116,116,-68,0
37,-54,4277,2279,21,-2,-68,116,116,-68,0
59,-68,4290,2282,21,-1,-68,116,116,-68,0
45,-73,4267,2280,21,6,-68,116,116,-68,0
47,-67,4304,2278,19,9,-64,120,116,-64,1
37,-59,4262,2273,24,4,-64,120,116,-64,0
53,-74,4274,2265,18,4,-64,120,116,-64,0
51,-68,4280,2274,17,7,-64,120,116,-64,0
49,-63,4288,2267,22,4,-64,120,116,-64,0
47,-80,4294,2269,20,-3,-66,118,110,-66,1
49,-69,4282,2271,20,-3,-66,118,110,-66,0
71,-72,4274,2278,18,3,-66,118,110,-66,0
56,-61,4285,2271,15,3,-66,118,110,-66,0
47,-76,4266,2269,21,4,-66,118,110,-66,0
60,-70,4297,2273,21,-1,-64,118,114,-64,1
46,-71,4284,2277,14,1,-64,118,114,-64,0
26,-66,4281,2279,18,5,-64,118,114,-64,0
20,-60,4310,2265,21,6,-64,118,114,-64,0
46,-58,4256,2283,18,7,-64,118,114,-64,0
35,-68,4297,2285,16,4,-63,119,115,-63,1
27,-56,4270,2276,20,2,-63,119,115,-63,0
46,-62,4272,2277,21,4,-63,119,115,-63,0
52,-56,4291,2284,17,4,-63,119,115,-63,0
39,-65,4296,2275,16,0,-63,119,115,-63,0
40,-63,4298,2283,14,8,-70,116,114,-70,1
64,-55,4281,2279,18,7,-70,116,114,-70,0
44,-73,4277,2284,19,4,-70,116,114,-70,0
34,-70,4293,2267,14,0,-70,116,114,-70,0
49,-71,4291,2275,15,4,-70,116,114,-70,0
41,-77,4296,2285,17,2,-65,117,115,-65,1
68,-70,4303,2272,13,4,-65,117,115,-65,0
60,-84,4287,2269,14,8,-65,117,115,-65,0
64,-70,4266,2266,18,9,-65,117,115,-65,0
49,-78,4301,2274,16,5,-65,117,115,-65,0
56,-67,4277,2265,16,2,-64,120,106,-64,1
43,-59,4290,2254,18,4,-64,120,106,-64,0
52,-72,4278,2268,18,8,-64,120,106,-64,0
46,-69,4283,2284,17,2,-64,120,106,-64,0
56,-68,4278,2282,21,4,-64,120,106,-64,0
42,-62,4290,2276,21,6,-60,116,114,-60,1
36,-40,4299,2279,20,10,-60,116,114,-60,0
53,-62,4295,2292,21,4,-60,116,114,-60,0
48,-64,4281,2274,18,1,-60,116,114,-60,0
52,-64,4298,2280,15,3,-60,116,114,-60,0
49,-69,4278,2268,18,12,-66,124,112,-66,0
62,-65,4290,2283,17,12,-66,124,112,-66,0
32,-56,4275,2273,17,2,-66,124,112,-66,0
51,-53,4305,2266,20,-2,-66,124,112,-66,0
46,-77,4294,2267,17,4,-53,115,117,-53,1
41,-55,4253,2285,19,7,-53,115,117,-53,1
56,-58,4296,2284,22,5,-53,115,117,-53,0
58,-63,4296,2290,19,0,-53,115,117,-53,0
47,-67,4269,2297,12,4,-53,115,117,-53,0
64,-64,4304,2301,15,8,-53,115,117,-53,0
47,-68,4293,2269,18,0,-60,120,112,-60,1
64,-65,4293,2272,17,-1,-60,120,112,-60,0
35,-65,4258,2265,23,7,-60,120,112,-60,0
54,-78,4276,2264,30,2,-60,120,112,-60,0
46,-78,4292,2265,21,1,-60,120,112,-60,0
52,-81,4289,2288,15,7,-63,115,119,-63,1
61,-76,4288,2269,16,1,-63,115,119,-63,0
48,-83,4281,2275,16,1,-63,115,119,-63,0
49,-69,4300,2270,15,4,-63,115,119,-63,0
46,-76,4270,2279,22,8,-63,115,119,-63,0
46,-62,4270,2286,23,8,-61,107,115,-61,1
61,-65,4306,2269,17,7,-61,107,115,-61,0
48,-55,4281,2283,21,0,-61,107,115,-61,0
32,-74,4279,2276,15,-2,-61,107,115,-61,0
44,-77,4275,2281,18,-1,-61,107,115,-61,0
48,-60,4277,2270,15,2,-61,107,115,-61,0
50,-82,4274,2266,12,4,-61,107,115,-61,0
42,-72,4289,2262,15,6,-61,107,115,-61,0
63,-71,4268,2276,18,3,-61,107,115,-61,0
46,-74,4298,2279,18,-1,-61,107,115,-61,0
69,-71,4279,2279,21,0,-61,107,115,-61,0
64,-62,4270,2277,16,8,-61,107,115,-61,0
40,-54,4306,2276,19,9,-61,107,115,-61,0
49,-73,4283,2283,23,4,-61,107,115,-61,0
60,-70,4271,2277,17,1,-61,107,115,-61,0
49,-59,4289,2271,15,2,-61,107,115,-61,0
45,-59,4299,2277,20,0,-64,114,108,-64,1
32,-69,4301,2279,19,0,-64,114,108,-64,0
47,-81,4301,2291,17,7,-64,114,108,-64,0
33,-70,4277,2269,21,3,-64,114,108,-64,0
38,-56,4285,2272,19,3,-64,114,108,-64,0
54,-52,4274,2280,23,6,-64,116,112,-64,1
51,-75,4297,2258,25,7,-64,116,112,-64,0
51,-73,4274,2272,16,3,-64,116,112,-64,0
41,-80,4263,2266,18,8,-64,116,112,-64,0
43,-58,4306,2269,19,7,-64,116,112,-64,0
44,-58,4292,2253,17,2,-63,115,115,-63,1
48,-61,4269,2278,18,-3,-63,115,115,-63,0
42,-61,4277,2282,18,3,-63,115,115,-63,0
59,-74,4291,2279,18,4,-63,115,115,-63,0
41,-60,4282,2281,21,4,-63,115,115,-63,0
43,-57,4283,2283,22,9,-70,118,108,-70,1
48,-63,4287,2274,19,12,-70,118,108,-70,0
63,-66,4292,2294,14,9,-70,118,108,-70,0
58,-85,4285,2289,15,7,-70,118,108,-70,0
40,-76,4267,2271,15,4,-70,118,108,-70,0
61,-74,4269,2273,15,-2,-67,111,107,-67,1
43,-72,4274,2283,12,2,-67,111,107,-67,0
57,-63,4284,2278,17,2,-67,111,107,-67,0
47,-78,4277,2261,20,3,-67,111,107,-67,0
40,-65,4286,2270,22,5,-67,111,107,-67,0
42,-72,4282,2269,21,6,-61,121,111,-61,1
41,-65,4287,2261,14,4,-61,121,111,-61,0
45,-72,4265,2275,15,-1,-61,121,111,-61,0
41,-64,4299,2281,25,9,-61,121,111,-61,0
45,-80,4276,2279,18,9,-61,121,111,-61,0
62,-67,4312,2263,9,6,-62,112,108,-62,1
36,-51,4284,2275,17,6,-62,112,108,-62,0
53,-77,4297,2265,17,1,-62,112,108,-62,0
35,-53,4274,2277,19,7,-62,112,108,-62,0
42,-79,4283,2271,21,2,-62,112,108,-62,0
46,-63,4275,2270,23,9,-59,117,119,-59,1
50,-59,4283,2263,20,6,-59,117,119,-59,0
54,-63,4278,2274,21,4,-59,117,119,-59,0
42,-57,4267,2271,21,2,-59,117,119,-59,0
46,-57,4287,2276,23,1,-59,117,119,-59,0
41,-65,4294,2274,19,8,-64,122,110,-64,1
67,-70,4291,2270,21,4,-64,122,110,-64,0
57,-56,4309,2263,23,4,-64,122,110,-64,0
47,-64,4293,2284,14,6,-64,122,110,-64,0
56,-74,4280,2273,11,8,-64,122,110,-64,0
53,-51,4300,2275,11,3,-62,120,108,-62,1
47,-63,4288,2278,14,2,-62,120,108,-62,0
54,-65,4263,2272,15,-1,-62,120,108,-62,0
39,-75,4303,2271,20,2,-62,120,108,-62,0
48,-44,4305,2270,16,4,-62,120,108,-62,0
51,-65,4285,2282,12,1,-58,120,118,-58,1
54,-53,4280,2283,11,1,-58,120,118,-58,0
36,-65,4310,2280,19,8,-58,120,118,-58,0
40,-80,4291,2265,25,5,-58,120,118,-58,0
33,-68,4296,2271,20,-1,-58,120,118,-58,0
46,-76,4274,2279,11,1,-60,120,112,-60,1
51,-66,4253,2264,19,-2,-60,120,112,-60,0
39,-76,4282,2270,26,0,-60,120,112,-60,0
38,-74,4287,2270,23,3,-60,120,112,-60,0
50,-66,4300,2285,12,3,-60,120,112,-60,0
50,-83,4263,2284,15,1,-61,121,115,-61,1
36,-86,4283,2283,15,4,-61,121,115,-61,0
56,-77,4271,2260,19,4,-61,121,115,-61,0
53,-68,4287,2262,19,2,-61,121,115,-61,0
38,-60,4303,2258,19,5,-61,117,107,-61,1
61,-45,4286,2266,21,4,-65,117,107,-65,1
51,-68,4289,2277,20,3,-65,117,107,-65,0
46,-64,4268,2268,15,3,-65,117,107,-65,0
43,-63,4271,2271,20,5,-65,117,107,-65,0
40,-74,4282,2277,24,5,-65,117,107,-65,0
41,-74,4272,2268,12,5,-66,122,112,-66,1
40,-79,4282,2266,14,0,-66,122,112,-66,0
54,-65,4286,2264,20,-2,-66,122,112,-66,0
60,-74,4285,2278,19,4,-66,122,112,-66,0
40,-71,4311,2281,17,3,-66,122,112,-66,0
44,-68,4268,2267,23,5,-66,112,116,-66,1
46,-64,4304,2277,21,9,-66,112,116,-66,0
44,-71,4290,2284,20,6,-66,112,116,-66,0
42,-63,4296,2280,17,11,-66,112,116,-66,0
52,-76,4284,2280,15,9,-66,112,116,-66,0
43,-68,4306,2271,16,2,-66,114,116,-66,0
40,-66,4286,2272,20,-1,-66,114,116,-66,0
36,-68,4300,2274,18,6,-66,114,116,-66,0
46,-76,4259,2277,15,7,-66,114,116,-66,0
43,-62,4287,2295,15,5,-66,114,116,-66,0
46,-58,4260,2293,11,3,-66,114,116,-66,0
65,-71,4291,2288,16,5,-66,114,116,-66,0
53,-70,4303,2285,16,2,-66,114,116,-66,0
58,-62,4265,2290,17,3,-66,114,116,-66,0
56,-61,4261,2291,19,8,-66,114,116,-66,0
49,-75,4272,2279,21,9,-66,114,116,-66,0
50,-59,4288,2276,16,5,-67,117,111,-67,1
48,-86,4266,2267,14,4,-67,117,111,-67,0
56,-62,4310,2274,17,12,-67,117,111,-67,0
50,-63,4290,2281,17,9,-67,117,111,-67,0
49,-50,4267,2273,17,5,-67,117,111,-67,0
51,-63,4310,2273,19,-1,-66,122,108,-66,1
46,-78,4269,2285,21,4,-66,122,108,-66,0
48,-63,4263,2278,17,7,-66,122,108,-66,0
52,-60,4255,2279,19,5,-66,122,108,-66,0
52,-54,4286,2281,18,9,-66,122,108,-66,0
54,-69,4290,2276,18,8,-54,116,114,-54,1
30,-72,4292,2277,14,3,-54,116,114,-54,0
50,-69,4247,2274,11,3,-54,116,114,-54,0
35,-61,4271,2281,15,2,-54,116,114,-54,0
17,-73,4284,2274,22,3,-54,116,114,-54,0
43,-62,4270,2282,21,-2,-55,117,107,-55,1
48,-54,4295,2273,19,0,-55,117,107,-55,0
51,-54,4277,2261,14,7,-55,117,107,-55,0
44,-71,4284,2266,16,3,-55,117,107,-55,0
46,-83,4287,2255,17,2,-55,117,107,-55,0
57,-60,4286,2256,15,0,-66,122,114,-66,1
59,-87,4265,2281,15,-1,-66,122,114,-66,0
49,-63,4317,2272,21,2,-66,122,114,-66,0
49,-67,4305,2274,15,-1,-66,122,114,-66,0
61,-52,4251,2270,14,0,-66,122,114,-66,0
47,-77,4302,2285,18,5,-56,118,110,-56,1
40,-70,4299,2285,14,7,-56,118,110,-56,0
43,-61,4286,2287,21,6,-56,118,110,-56,0
41,-70,4297,2268,23,9,-56,118,110,-56,0
32,-72,4294,2281,19,3,-56,118,110,-56,0
52,-71,4298,2274,15,6,-57,117,119,-57,1
50,-70,4270,2272,17,10,-57,117,119,-57,0
56,-52,4287,2286,22,9,-57,117,119,-57,0
70,-79,4323,2277,19,3,-57,117,119,-57,0
48,-44,4269,2272,9,5,-57,117,119,-57,0
48,-67,4251,2280,19,6,-58,116,112,-58,1
52,-69,4296,2281,17,4,-58,116,112,-58,0
45,-62,4318,2287,13,-1,-58,116,112,-58,0
50,-74,4272,2275,13,1,-58,116,112,-58,0
28,-76,4274,2285,20,2,-58,116,112,-58,0
63,-87,4252,2270,20,0,-63,117,117,-63,1
65,-70,4296,2261,13,5,-63,117,117,-63,0
46,-64,4274,2276,16,11,-63,117,117,-63,0
37,-79,4268,2277,18,8,-63,117,117,-63,0
45,-50,4269,2270,21,2,-63,117,117,-63,0
53,-76,4291,2272,17,6,-64,118,110,-64,0
51,-61,4268,2289,14,7,-64,118,110,-64,0
59,-75,4267,2291,18,-2,-64,118,110,-64,0
43,-59,4304,2277,17,1,-64,118,110,-64,0
41,-67,4301,2270,15,1,-60,120,110,-60,1
40,-47,4300,2258,15,3,-60,120,110,-60,1
61,-62,4281,2273,16,5,-60,120,110,-60,0
47,-57,4289,2277,18,5,-60,120,110,-60,0
54,-56,4295,2277,17,5,-60,120,110,-60,0
56,-65,4312,2263,18,5,-60,120,110,-60,0
48,-67,4268,2281,13,0,-64,116,114,-64,1
46,-59,4318,2280,13,6,-64,116,114,-64,0
46,-62,4282,2258,21,11,-64,116,114,-64,0
56,-85,4284,2260,18,4,-64,116,114,-64,0
61,-60,4270,2258,10,5,-64,116,114,-64,0
44,-76,4270,2276,20,10,-61,121,119,-61,1
47,-65,4300,2257,21,8,-61,121,119,-61,0
55,-57,4275,2271,19,2,-61,121,119,-61,0
59,-77,4289,2289,30,3,-61,121,119,-61,0
70,-59,4307,2277,23,7,-61,121,119,-61,0
47,-68,4278,2289,17,10,-56,122,122,-56,0
60,-71,4260,2287,18,9,-56,122,122,-56,0
28,-60,4311,2281,19,7,-56,122,122,-56,0
43,-68,4304,2269,23,5,-56,122,122,-56,0
58,-65,4287,2274,16,6,-56,122,122,-56,0
43,-54,4290,2276,13,7,-60,122,112,-60,1
50,-51,4306,2270,14,2,-60,122,112,-60,0
38,-60,4264,2263,13,6,-60,122,112,-60,0
54,-84,4296,2268,19,7,-60,122,112,-60,0
36,-61,4291,2279,18,2,-60,122,112,-60,0
43,-78,4292,2271,19,2,-57,121,115,-57,1
42,-60,4272,2270,19,0,-57,121,115,-57,0
45,-67,4275,2262,14,4,-57,121,115,-57,0
56,-67,4266,2273,20,3,-57,121,115,-57,0
44,-70,4273,2265,22,9,-57,121,115,-57,0
43,-70,4294,2281,21,7,-64,120,124,-64,0
42,-66,4303,2283,19,3,-64,120,124,-64,0
36,-54,4287,2274,16,3,-64,120,124,-64,0
40,-74,4276,2285,15,5,-64,120,124,-64,0
50,-53,4289,2275,16,0,-64,120,124,-64,0
46,-62,4278,2283,21,-2,-64,120,124,-64,0
57,-71,4274,2258,18,4,-64,120,124,-64,0
46,-66,4291,2274,19,7,-64,120,124,-64,0
55,-58,4288,2263,22,7,-64,120,124,-64,0
50,-65,4298,2284,17,2,-64,120,124,-64,0
64,-76,4287,2269,14,5,-64,120,124,-64,0
49,-56,4256,2276,10,1,-57,123,107,-57,1
44,-54,4267,2276,18,2,-57,123,107,-57,0
55,-65,4293,2277,19,9,-57,123,107,-57,0
44,-51,4272,2265,15,3,-57,123,107,-57,0
61,-55,4299,2256,13,1,-57,123,107,-57,0
42,-64,4304,2261,15,2,-61,121,111,-61,1
55,-50,4283,2272,16,1,-61,121,111,-61,0
51,-69,4273,2271,19,1,-61,121,111,-61,0
34,-74,4294,2268,18,5,-61,121,111,-61,0
49,-74,4283,2267,21,9,-61,121,111,-61,0
39,-65,4298,2275,19,3,-62,120,116,-62,1
46,-74,4318,2278,17,6,-62,120,116,-62,0
45,-72,4309,2274,15,8,-62,120,116,-62,0
52,-71,4275,2280,22,0,-62,120,116,-62,0
49,-42,4286,2266,18,1,-62,120,116,-62,0
44,-60,4323,2271,18,3,-62,116,114,-62,1
77,-70,4287,2279,15,-5,-62,116,114,-62,0
52,-62,4291,2288,12,-1,-62,116,114,-62,0
47,-72,4290,2285,16,6,-62,116,114,-62,0
65,-78,4302,2273,19,1,-62,116,114,-62,0
47,-72,4312,2273,18,-2,-55,115,109,-55,1
42,-67,4263,2281,19,-1,-55,115,109,-55,0
57,-74,4298,2276,17,9,-55,115,109,-55,0
47,-85,4299,2290,18,4,-55,115,109,-55,0
40,-61,4284,2287,16,9,-55,115,109,-55,0
55,-53,4297,2285,17,8,-64,114,104,-64,1
30,-56,4275,2277,17,8,-64,114,104,-64,0
41,-75,4274,2279,14,3,-64,114,104,-64,0
46,-61,4290,2273,22,9,-64,114,104,-64,0
66,-83,4286,2274,18,3,-64,114,104,-64,0
49,-65,4281,2280,12,1,-66,118,116,-66,1
51,-66,4247,2292,11,4,-66,118,116,-66,0
53,-63,4291,2283,22,5,-66,118,116,-66,0
54,-65,4269,2277,21,6,-66,118,116,-66,0
45,-74,4290,2270,20,10,-66,118,116,-66,0
42,-87,4295,2249,19,0,-60,112,120,-60,1
37,-68,4279,2261,21,-1,-60,112,120,-60,0
50,-62,4282,2275,21,7,-60,112,120,-60,0
53,-80,4311,2273,15,1,-60,112,120,-60,0
45,-70,4291,2280,11,-1,-60,116,120,-60,1
39,-76,4297,2274,20,-2,-56,116,114,-56,1
48,-56,4295,2264,16,3,-56,116,114,-56,0
56,-69,4285,2269,15,9,-56,116,114,-56,0
47,-62,4280,2296,20,7,-56,116,114,-56,0
60,-81,4298,2273,21,-1,-56,116,114,-56,0
61,-65,4295,2258,17,-5,-63,119,119,-63,1
48,-70,4278,2271,10,0,-63,119,119,-63,0
46,-65,4281,2277,14,4,-63,119,119,-63,0
31,-82,4309,2278,20,9,-63,119,119,-63,0
43,-66,4300,2274,22,6,-63,119,119,-63,0
49,-72,4275,2267,18,1,-61,121,117,-61,1
34,-57,4279,2281,14,0,-61,121,117,-61,0
41,-58,4275,2271,18,9,-61,121,117,-61,0
27,-65,4274,2273,23,9,-61,121,117,-61,0
48,-74,4254,2275,19,9,-61,121,117,-61,0
53,-62,4298,2275,19,9,-64,122,114,-64,1
41,-65,4305,2276,20,1,-64,122,114,-64,0
23,-79,4267,2279,22,5,-64,122,114,-64,0
31,-65,4287,2280,19,6,-64,122,114,-64,0
36,-73,4300,2285,21,2,-64,122,114,-64,0
50,-64,4277,2286,16,0,-66,118,120,-66,1
42,-81,4272,2271,16,5,-66,118,120,-66,0
40,-53,4279,2268,19,4,-66,118,120,-66,0
48,-69,4300,2272,20,-4,-66,118,120,-66,0
54,-59,4296,2285,16,-1,-66,118,120,-66,0
55,-60,4305,2296,19,1,-61,119,115,-61,1
52,-66,4301,2281,20,2,-61,119,115,-61,0
44,-67,4298,2269,22,7,-61,119,115,-61,0
28,-52,4268,2267,18,7,-61,119,115,-61,0
49,-70,4283,2273,16,1,-61,119,115,-61,0
41,-50,4306,2280,13,1,-63,109,115,-63,1
52,-74,4293,2267,12,5,-63,109,115,-63,0
55,-54,4287,2281,11,2,-63,109,115,-63,0
42,-53,4275,2270,17,-1,-63,109,115,-63,0
47,-76,4297,2272,21,4,-63,109,115,-63,0
48,-57,4297,2282,20,0,-69,121,117,-69,0
55,-66,4261,2277,17,2,-69,121,117,-69,0
34,-62,4291,2279,17,1,-69,121,117,-69,0
42,-61,4299,2280,18,1,-69,121,117,-69,0
50,-67,4278,2273,15,3,-69,121,117,-69,0
51,-74,4287,2287,16,5,-69,121,117,-69,0
57,-70,4307,2295,19,13,-69,121,117,-69,0
51,-60,4261,2284,22,1,-69,121,117,-69,0
59,-57,4316,2271,21,0,-69,121,117,-69,0
43,-67,4310,2293,24,4,-69,121,117,-69,0
37,-69,4298,2269,20,1,-69,121,117,-69,0
52,-72,4286,2277,18,2,-59,121,109,-59,1
54,-84,4284,2272,23,7,-59,121,109,-59,0
39,-63,4302,2277,18,2,-59,121,109,-59,0
58,-73,4278,2293,17,5,-59,121,109,-59,0
55,-78,4299,2275,19,4,-59,121,109,-59,0
55,-62,4288,2270,19,5,-62,114,108,-62,1
56,-64,4298,2265,15,5,-62,114,108,-62,0
50,-67,4297,2269,17,3,-62,114,108,-62,0
65,-76,4304,2276,19,8,-62,114,108,-62,0
36,-65,4290,2283,18,7,-62,114,108,-62,0
50,-47,4304,2277,14,5,-66,124,104,-66,1
39,-58,4285,2277,17,7,-66,124,104,-66,0
62,-44,4281,2280,17,8,-66,124,104,-66,0
58,-51,4301,2266,19,4,-66,124,104,-66,0
48,-63,4285,2265,19,2,-66,124,104,-66,0
34,-70,4283,2282,16,1,-66,116,108,-66,1
47,-57,4290,2284,22,1,-66,116,108,-66,0
52,-75,4285,2288,21,7,-66,116,108,-66,0
55,-63,4279,2273,18,7,-66,116,108,-66,0
65,-64,4268,2274,17,4,-66,116,108,-66,0
59,-62,4304,2288,19,7,-63,121,111,-63,1
55,-61,4294,2276,20,2,-63,121,111,-63,0
51,-82,4270,2287,21,2,-63,121,111,-63,0
57,-60,4298,2282,20,5,-63,121,111,-63,0
27,-58,4271,2281,18,7,-63,121,111,-63,0
41,-70,4304,2279,15,6,-64,126,110,-64,1
54,-72,4286,2267,12,3,-64,126,110,-64,0
41,-83,4299,2274,17,5,-64,126,110,-64,0
40,-64,4281,2282,19,5,-64,126,110,-64,0
67,-70,4297,2266,23,10,-64,126,110,-64,0
35,-67,4292,2265,14,6,-57,111,111,-57,1
41,-74,4280,2280,17,8,-57,111,111,-57,0
51,-66,4278,2284,21,3,-57,111,111,-57,0
37,-59,4282,2285,19,2,-57,111,111,-57,0
55,-73,4281,2272,18,3,-57,111,111,-57,0
51,-75,4274,2284,15,5,-55,123,113,-55,1
33,-58,4249,2275,14,2,-55,123,113,-55,0
45,-71,4265,2278,17,7,-55,123,113,-55,0
57,-77,4308,2277,17,5,-55,123,113,-55,0
59,-66,4294,2281,17,4,-55,123,113,-55,0
59,-73,4296,2290,16,5,-60,120,112,-60,1
35,-67,4258,2288,15,3,-60,120,112,-60,0
43,-69,4281,2276,20,8,-60,120,112,-60,0
46,-70,4288,2298,21,3,-60,120,112,-60,0
46,-64,4287,2277,20,6,-60,120,112,-60,0
56,-52,4292,2261,13,6,-62,114,116,-62,1
53,-73,4258,2268,16,6,-62,114,116,-62,0
56,-65,4305,2282,14,6,-62,114,116,-62,0
46,-61,4265,2279,15,1,-62,114,116,-62,0
49,-88,4278,2265,10,2,-62,114,116,-62,0
48,-79,4288,2262,14,3,-56,116,108,-56,1
49,-75,4279,2271,22,4,-56,116,108,-56,0
47,-62,4277,2275,20,0,-56,116,108,-56,0
39,-60,4279,2281,16,5,-56,116,108,-56,0
41,-75,4281,2276,16,3,-56,116,108,-56,0
55,-67,4269,2277,17,0,-62,114,114,-62,1
53,-61,4294,2272,18,-1,-62,114,114,-62,0
43,-71,4270,2281,13,-1,-62,114,114,-62,0
37,-61,4278,2272,16,-2,-62,114,114,-62,0
44,-74,4281,2276,15,7,-62,114,114,-62,0
38,-65,4298,2266,18,7,-56,116,112,-56,1
37,-69,4282,2261,15,0,-56,116,112,-56,0
58,-72,4273,2265,22,-3,-56,116,112,-56,0
50,-61,4282,2283,19,0,-56,116,112,-56,0
28,-73,4267,2286,11,3,-56,116,112,-56,0
54,-63,4295,2291,12,-1,-58,112,108,-58,1
50,-71,4278,2274,18,5,-58,112,108,-58,0
60,-71,4278,2283,18,1,-58,112,108,-58,0
46,-76,4271,2290,19,7,-58,112,108,-58,0
59,-67,4291,2270,18,3,-58,112,108,-58,0
42,-58,4264,2269,19,4,-59,117,113,-59,1
45,-71,4298,2275,23,4,-59,117,113,-59,0
44,-62,4273,2271,24,-2,-59,117,113,-59,0
39,-50,4277,2276,23,1,-59,117,113,-59,0
44,-61,4272,2277,19,4,-59,117,113,-59,0
59,-76,4331,2275,19,5,-59,117,113,-59,0
40,-54,4281,2275,18,4,-59,117,113,-59,0
49,-63,4285,2276,12,8,-59,117,113,-59,0
49,-74,4297,2268,18,4,-59,117,113,-59,0
49,-68,4259,2281,18,3,-59,117,113,-59,0
42,-61,4267,2291,18,9,-59,117,113,-59,0
36,-75,4275,2298,18,4,-65,113,107,-65,1
37,-63,4278,2293,16,9,-65,113,107,-65,0
26,-64,4276,2286,14,4,-65,113,107,-65,0
57,-77,4284,2275,17,6,-65,113,107,-65,0
48,-74,4315,2272,19,5,-65,113,107,-65,0
57,-67,4296,2276,18,-1,-61,119,111,-61,1
37,-75,4291,2274,24,-2,-61,119,111,-61,0
53,-67,4293,2275,19,5,-61,119,111,-61,0
46,-78,4303,2285,15,4,-61,119,111,-61,0
37,-39,4291,2280,19,11,-60,118,112,-60,1
44,-69,4283,2266,21,13,-60,118,112,-60,1
55,-64,4271,2282,24,7,-60,118,112,-60,0
54,-68,4291,2276,22,2,-60,118,112,-60,0
63,-59,4273,2277,21,2,-60,118,112,-60,0
55,-52,4289,2270,19,0,-60,118,112,-60,0
37,-62,4277,2280,14,4,-58,118,108,-58,1
46,-50,4295,2291,19,5,-58,118,108,-58,0
57,-72,4278,2284,16,14,-58,118,108,-58,0
45,-77,4278,2283,15,6,-58,118,108,-58,0
49,-65,4293,2265,17,7,-58,118,108,-58,0
33,-76,4280,2270,18,1,-62,114,108,-62,1
35,-66,4290,2271,15,1,-62,114,108,-62,0
47,-64,4294,2273,21,4,-62,114,108,-62,0
57,-67,4295,2286,20,2,-62,114,108,-62,0
47,-73,4273,2289,22,2,-62,114,108,-62,0
60,-69,4271,2280,19,1,-53,119,107,-53,1
58,-63,4291,2274,18,2,-53,119,107,-53,0
51,-74,4288,2273,19,0,-53,119,107,-53,0
63,-72,4289,2281,21,5,-53,119,107,-53,0
39,-61,4291,2287,18,6,-65,121,115,-65,1
57,-78,4291,2279,16,5,-65,121,115,-65,1
51,-76,4292,2275,18,3,-65,121,115,-65,0
28,-74,4278,2289,20,0,-65,121,115,-65,0
36,-56,4280,2273,22,9,-65,121,115,-65,0
60,-72,4289,2280,19,5,-65,121,115,-65,0
44,-80,4288,2287,21,2,-63,119,113,-63,1
41,-64,4282,2287,20,0,-63,119,113,-63,0
56,-86,4282,2288,19,9,-63,119,113,-63,0
60,-73,4297,2292,15,5,-63,119,113,-63,0
38,-65,4282,2286,17,-4,-57,113,115,-57,1
54,-55,4277,2288,21,4,-57,113,115,-57,1
62,-67,4278,2281,19,6,-57,113,115,-57,0
51,-60,4265,2282,21,4,-57,113,115,-57,0
41,-65,4287,2268,20,4,-57,113,115,-57,0
42,-86,4304,2269,24,1,-57,113,115,-57,0
43,-86,4287,2278,18,3,-58,112,118,-58,1
49,-67,4296,2270,19,3,-58,112,118,-58,0
63,-66,4291,2283,19,8,-58,112,118,-58,0
50,-63,4314,2275,17,6,-58,112,118,-58,0
61,-71,4276,2280,16,3,-58,112,118,-58,0
47,-63,4288,2286,20,5,-63,125,109,-63,1
34,-48,4296,2283,23,3,-63,125,109,-63,0
54,-86,4303,2268,24,4,-63,125,109,-63,0
58,-72,4286,2276,16,3,-63,125,109,-63,0
54,-66,4274,2278,18,1,-63,125,109,-63,0
46,-74,4295,2287,19,1,-67,119,113,-67,1
39,-66,4289,2278,16,3,-67,119,113,-67,0
46,-62,4278,2277,19,5,-67,119,113,-67,0
40,-55,4288,2282,18,7,-67,119,113,-67,0
42,-53,4294,2290,19,5,-67,119,113,-67,0
54,-68,4271,2294,18,1,-67,113,111,-67,1
50,-63,4294,2268,19,-2,-67,113,111,-67,0
54,-75,4319,2279,19,2,-67,113,111,-67,0
45,-63,4267,2279,22,5,-67,113,111,-67,0
50,-64,4272,2271,21,4,-67,113,111,-67,0
67,-68,4284,2285,15,10,-59,119,119,-59,1
61,-67,4307,2279,18,8,-59,119,119,-59,0
63,-60,4289,2278,24,6,-59,119,119,-59,0
38,-50,4304,2280,15,5,-59,119,119,-59,0
36,-49,4306,2292,11,10,-59,119,119,-59,0
49,-75,4286,2291,14,3,-61,119,109,-61,1
39,-59,4276,2286,17,1,-61,119,109,-61,0
50,-83,4266,2300,16,4,-61,119,109,-61,0
33,-71,4297,2283,21,5,-61,119,109,-61,0
47,-53,4315,2279,24,8,-61,119,109,-61,0
53,-59,4305,2275,19,6,-60,120,114,-60,1
46,-65,4291,2273,20,10,-60,120,114,-60,0
35,-64,4259,2281,17,4,-60,120,114,-60,0
40,-64,4289,2287,13,4,-60,120,114,-60,0
55,-72,4263,2281,17,3,-60,120,114,-60,0
40,-73,4308,2285,16,4,-60,120,114,-60,0
56,-70,4288,2285,20,5,-60,120,114,-60,0
50,-60,4263,2283,16,9,-60,120,114,-60,0
54,-68,4307,2285,19,4,-60,120,114,-60,0
44,-78,4290,2281,20,1,-60,120,114,-60,0
40,-72,4293,2278,19,3,-60,120,114,-60,0
56,-84,4287,2282,15,-6,-65,125,113,-65,1
51,-66,4257,2297,16,-1,-65,125,113,-65,0
69,-63,4262,2288,17,5,-65,125,113,-65,0
38,-68,4277,2284,16,5,-65,125,113,-65,0
42,-54,4287,2278,19,2,-65,125,113,-65,0
43,-72,4294,2269,16,1,-64,124,110,-64,1
41,-53,4281,2283,20,1,-64,124,110,-64,0
40,-69,4278,2268,20,7,-64,124,110,-64,0
32,-58,4275,2273,17,9,-64,124,110,-64,0
44,-61,4271,2271,20,5,-64,124,110,-64,0
48,-60,4284,2274,21,7,-57,119,107,-57,1
52,-73,4292,2286,15,7,-57,119,107,-57,0
45,-78,4274,2280,24,8,-57,119,107,-57,0
51,-62,4285,2282,23,5,-57,119,107,-57,0
51,-74,4314,2270,21,1,-57,119,107,-57,0
53,-61,4292,2289,24,3,-63,121,115,-63,1
49,-69,4289,2283,20,5,-63,121,115,-63,0
57,-60,4302,2283,19,11,-63,121,115,-63,0
40,-68,4257,2277,16,12,-63,121,115,-63,0
51,-60,4303,2276,18,3,-63,121,115,-63,0
45,-70,4313,2270,21,4,-61,121,125,-61,1
49,-61,4271,2286,18,8,-61,121,125,-61,0
59,-49,4281,2286,16,6,-61,121,125,-61,0
44,-70,4277,2297,12,5,-61,121,125,-61,0
57,-79,4298,2284,14,9,-61,121,125,-61,0
53,-53,4276,2304,21,2,-65,107,111,-65,1
56,-68,4289,2294,20,0,-65,107,111,-65,0
55,-84,4295,2291,16,5,-65,107,111,-65,0
28,-71,4294,2277,24,0,-65,107,111,-65,0
47,-73,4297,2281,21,3,-65,107,111,-65,0
43,-60,4260,2276,17,7,-69,117,115,-69,1
40,-77,4283,2289,15,5,-69,117,115,-69,0
50,-80,4276,2280,21,7,-69,117,115,-69,0
61,-57,4287,2287,21,2,-69,117,115,-69,0
48,-59,4299,2281,17,3,-69,117,115,-69,0
38,-59,4274,2273,21,2,-61,119,113,-61,1
47,-76,4282,2286,19,1,-61,119,113,-61,0
46,-67,4280,2277,22,7,-61,119,113,-61,0
47,-72,4291,2276,26,5,-61,119,113,-61,0
48,-70,4288,2279,22,2,-65,119,105,-65,1
51,-73,4277,2293,14,4,-65,119,105,-65,1
50,-74,4286,2293,19,9,-65,119,105,-65,0
41,-79,4278,2280,22,7,-65,119,105,-65,0
58,-70,4269,2277,15,4,-65,119,105,-65,0
47,-53,4287,2282,15,4,-65,119,105,-65,0
39,-66,4299,2283,17,7,-59,115,111,-59,0
44,-58,4267,2283,19,5,-59,115,111,-59,0
54,-72,4270,2284,24,4,-59,115,111,-59,0
49,-75,4289,2266,19,5,-59,115,111,-59,0
46,-61,4271,2262,24,5,-59,115,111,-59,0
49,-81,4288,2278,24,3,-64,116,118,-64,1
43,-68,4297,2276,18,1,-64,116,118,-64,0
59,-82,4318,2275,22,1,-64,116,118,-64,0
61,-69,4266,2288,17,5,-64,116,118,-64,0
47,-62,4278,2271,20,2,-64,116,118,-64,0
44,-72,4289,2285,18,5,-64,116,106,-64,1
57,-56,4312,2291,18,6,-64,116,106,-64,0
33,-70,4280,2289,24,2,-64,116,106,-64,0
36,-63,4271,2281,18,5,-64,116,106,-64,0
45,-56,4309,2264,21,5,-64,116,106,-64,0
46,-74,4292,2260,16,4,-67,119,117,-67,1
40,-65,4263,2272,17,3,-67,119,117,-67,0
38,-63,4271,2278,21,1,-67,119,117,-67,0
59,-65,4289,2281,16,0,-67,119,117,-67,0
52,-74,4288,2278,14,3,-67,119,117,-67,0
41,-84,4284,2290,17,0,-62,118,110,-62,1
39,-72,4294,2284,19,-2,-62,118,110,-62,0
29,-66,4291,2272,17,5,-62,118,110,-62,0
47,-65,4310,2284,16,0,-62,118,110,-62,0
46,-68,4290,2276,16,-1,-62,118,110,-62,0
41,-63,4302,2278,15,2,-63,117,113,-63,1
53,-65,4291,2262,18,3,-63,117,113,-63,0
48,-68,4261,2277,14,3,-63,117,113,-63,0
32,-64,4303,2265,11,3,-63,117,113,-63,0
57,-63,4285,2274,18,5,-63,117,113,-63,0
38,-95,4258,2267,17,7,-62,114,114,-62,1
33,-87,4305,2279,17,7,-62,114,114,-62,0
63,-68,4297,2276,19,7,-62,114,114,-62,0
45,-71,4269,2288,14,6,-62,114,114,-62,0
36,-84,4273,2291,12,9,-62,114,114,-62,0
50,-78,4284,2263,19,5,-62,114,114,-62,0
38,-67,4281,2278,20,4,-62,114,114,-62,0
57,-59,4273,2279,21,7,-62,114,114,-62,0
43,-75,4280,2275,19,6,-62,114,114,-62,0
57,-70,4290,2279,16,2,-62,114,114,-62,0
41,-67,4263,2281,14,1,-62,114,114,-62,0
43,-65,4287,2265,15,5,-61,115,113,-61,1
36,-58,4290,2285,19,2,-61,115,113,-61,0
63,-46,4291,2280,23,5,-61,115,113,-61,0
39,-65,4263,2273,20,9,-61,115,113,-61,0
53,-65,4316,2285,19,10,-61,115,113,-61,0
43,-60,4283,2276,18,5,-62,116,116,-62,1
43,-79,4269,2270,19,5,-62,116,116,-62,0
41,-66,4271,2269,16,3,-62,116,116,-62,0
54,-75,4298,2280,20,0,-62,116,116,-62,0
37,-65,4291,2296,17,2,-62,116,116,-62,0
44,-68,4301,2283,10,8,-64,118,114,-64,1
42,-78,4311,2286,18,6,-64,118,114,-64,0
45,-52,4296,2283,15,4,-64,118,114,-64,0
45,-68,4281,2285,16,3,-64,118,114,-64,0
59,-59,4294,2279,16,-1,-64,118,114,-64,0
43,-64,4292,2285,12,-4,-65,109,115,-65,1
55,-73,4289,2284,17,-2,-65,109,115,-65,0
31,-64,4283,2281,13,0,-65,109,115,-65,0
47,-68,4271,2277,19,1,-65,109,115,-65,0
44,-57,4284,2281,22,6,-65,109,115,-65,0
43,-73,4297,2270,18,6,-67,117,107,-67,1
52,-61,4251,2272,19,2,-67,117,107,-67,0
59,-53,4301,2278,20,4,-67,117,107,-67,0
47,-79,4293,2295,17,5,-67,117,107,-67,0
32,-61,4304,2287,18,6,-67,117,107,-67,0
50,-65,4280,2280,21,9,-60,116,108,-60,0
39,-73,4277,2267,18,3,-60,116,108,-60,0
49,-73,4293,2285,19,0,-60,116,108,-60,0
44,-88,4306,2285,23,-2,-60,116,108,-60,0
57,-68,4282,2280,20,6,-60,116,108,-60,0
59,-59,4281,2275,16,9,-63,117,107,-63,1
43,-77,4306,2277,15,2,-63,117,107,-63,0
58,-65,4275,2291,19,4,-63,117,107,-63,0
39,-71,4312,2286,20,4,-63,117,107,-63,0
41,-80,4304,2286,20,2,-63,117,107,-63,0
62,-66,4290,2276,18,1,-66,118,116,-66,1
43,-63,4284,2282,16,2,-66,118,116,-66,0
61,-56,4298,2266,14,3,-66,118,116,-66,0
50,-63,4269,2286,15,2,-66,118,116,-66,0
48,-69,4285,2291,22,2,-66,118,116,-66,0
52,-80,4299,2291,19,6,-64,114,108,-64,1
57,-63,4276,2274,17,10,-64,114,108,-64,0
60,-67,4299,2273,13,9,-64,114,108,-64,0
57,-80,4288,2284,15,6,-64,114,108,-64,0
57,-81,4271,2267,17,3,-64,114,108,-64,0
58,-74,4292,2278,20,11,-60,120,120,-60,1
58,-65,4303,2294,14,3,-60,120,120,-60,0
40,-58,4286,2295,16,0,-60,120,120,-60,0
38,-67,4314,2269,16,5,-60,120,120,-60,0
55,-57,4300,2279,12,2,-60,120,120,-60,0
63,-66,4307,2285,17,4,-64,116,112,-64,1
46,-64,4265,2279,20,5,-64,116,112,-64,0
39,-62,4277,2284,22,4,-64,116,112,-64,0
56,-64,4281,2274,21,0,-64,116,112,-64,0
66,-68,4283,2280,23,3,-64,116,112,-64,0
50,-68,4283,2284,17,4,-57,119,117,-57,1
40,-55,4277,2277,18,5,-57,119,117,-57,0
66,-74,4277,2276,16,1,-57,119,117,-57,0
45,-86,4300,2275,14,-2,-57,119,117,-57,0
55,-64,4288,2277,19,-1,-57,119,117,-57,0
51,-70,4278,2276,15,1,-67,119,117,-67,1
45,-70,4270,2287,16,10,-67,119,117,-67,0
54,-55,4297,2277,18,6,-67,119,117,-67,0
41,-72,4277,2277,20,4,-67,119,117,-67,0
49,-72,4293,2280,23,7,-67,119,117,-67,0
53,-84,4281,2271,20,4,-66,116,116,-66,1
46,-61,4319,2262,19,4,-66,116,116,-66,0
47,-68,4292,2282,21,1,-66,116,116,-66,0
38,-69,4275,2294,22,1,-66,116,116,-66,0
49,-64,4281,2283,22,3,-66,116,116,-66,0
45,-69,4289,2280,17,4,-56,114,110,-56,1
70,-65,4281,2279,20,4,-56,114,110,-56,0
59,-71,4270,2277,21,7,-56,114,110,-56,0
32,-57,4283,2279,17,6,-56,114,110,-56,0
55,-66,4294,2277,19,3,-56,114,110,-56,0
49,-46,4276,2290,19,7,-56,114,110,-56,0
54,-66,4275,2277,21,10,-56,114,110,-56,0
36,-73,4280,2267,17,5,-56,114,110,-56,0
47,-48,4284,2277,19,-3,-56,114,110,-56,0
45,-77,4301,2281,22,2,-56,114,110,-56,0
34,-79,4271,2280,19,1,-56,114,110,-56,0
54,-61,4280,2269,16,6,-64,112,112,-64,1
24,-68,4290,2288,16,2,-64,112,112,-64,0
42,-63,4269,2266,17,5,-64,112,112,-64,0
57,-72,4278,2281,17,12,-64,112,112,-64,0
47,-59,4301,2278,11,5,-64,112,112,-64,0
53,-75,4272,2272,13,1,-61,127,109,-61,1
45,-56,4293,2284,17,5,-61,127,109,-61,0
54,-77,4289,2287,20,2,-61,127,109,-61,0
40,-67,4276,2286,21,2,-61,127,109,-61,0
57,-80,4257,2293,23,6,-61,127,109,-61,0
56,-68,4287,2271,17,6,-62,118,114,-62,1
50,-67,4283,2277,18,4,-62,118,114,-62,0
48,-50,4292,2284,21,8,-62,118,114,-62,0
51,-82,4273,2286,19,1,-62,118,114,-62,0
53,-60,4300,2281,19,1,-62,118,114,-62,0
49,-75,4288,2289,22,6,-57,121,117,-57,1
43,-74,4284,2291,20,5,-57,121,117,-57,0
54,-85,4281,2289,19,3,-57,121,117,-57,0
50,-71,4302,2281,16,10,-57,121,117,-57,0
36,-59,4306,2275,19,8,-59,113,113,-59,1
54,-73,4281,2285,21,-1,-59,113,113,-59,1
54,-57,4314,2286,23,3,-59,113,113,-59,0
46,-53,4286,2276,22,5,-59,113,113,-59,0
56,-77,4299,2278,20,4,-59,113,113,-59,0
37,-61,4267,2302,14,5,-59,113,113,-59,0
47,-68,4277,2304,15,5,-65,113,107,-65,1
39,-71,4295,2286,16,4,-65,113,107,-65,0
58,-83,4300,2285,15,8,-65,113,107,-65,0
54,-65,4282,2285,13,7,-65,113,107,-65,0
65,-57,4275,2268,17,2,-65,113,107,-65,0
45,-64,4282,2281,14,7,-58,116,110,-58,0
33,-65,4312,2275,19,3,-58,116,110,-58,0
36,-60,4264,2282,15,-2,-58,116,110,-58,0
53,-66,4270,2294,18,0,-58,116,110,-58,0
41,-60,4298,2275,19,6,-58,116,110,-58,0
51,-80,4283,2286,14,2,-67,115,119,-67,1
62,-79,4302,2277,16,-3,-67,115,119,-67,0
51,-65,4305,2276,16,4,-67,115,119,-67,0
46,-58,4304,2289,18,-1,-67,115,119,-67,0
65,-67,4304,2281,17,5,-67,115,119,-67,0
45,-78,4275,2287,16,2,-54,120,110,-54,1
70,-68,4288,2279,18,3,-54,120,110,-54,0
50,-49,4286,2279,23,4,-54,120,110,-54,0
47,-79,4293,2272,22,6,-54,120,110,-54,0
52,-73,4318,2278,16,7,-54,120,110,-54,0
47,-66,4282,2273,10,4,-62,120,114,-62,1
46,-54,4290,2274,15,-1,-62,120,114,-62,0
44,-74,4279,2291,18,7,-62,120,114,-62,0
51,-60,4284,2289,16,6,-62,120,114,-62,0
41,-59,4302,2284,17,1,-62,120,114,-62,0
53,-62,4296,2273,18,-1,-67,113,117,-67,1
37,-60,4277,2280,11,0,-67,113,117,-67,0
57,-69,4283,2278,13,4,-67,113,117,-67,0
40,-87,4305,2276,15,0,-67,113,117,-67,0
36,-81,4270,2281,18,0,-67,113,117,-67,0
40,-69,4297,2290,16,4,-60,118,110,-60,1
33,-62,4301,2279,16,1,-60,118,110,-60,0
38,-67,4269,2275,18,-1,-60,118,110,-60,0
47,-81,4287,2302,13,3,-60,118,110,-60,0
47,-68,4281,2285,15,4,-60,118,110,-60,0
44,-64,4291,2287,16,2,-60,126,114,-60,1
47,-67,4258,2284,13,1,-60,126,114,-60,0
40,-85,4287,2295,13,7,-60,126,114,-60,0
45,-75,4267,2287,14,5,-60,126,114,-60,0
58,-72,4299,2274,13,0,-60,117,119,-60,1
44,-62,4304,2284,15,2,-69,117,119,-69,1
40,-62,4305,2284,20,1,-69,117,119,-69,0
45,-61,4270,2282,16,5,-69,117,119,-69,0
55,-46,4285,2286,17,3,-69,117,119,-69,0
42,-60,4302,2292,23,6,-69,116,108,-69,1
67,-65,4294,2286,22,5,-60,116,108,-60,1
60,-62,4274,2283,19,6,-60,116,108,-60,0
35,-80,4282,2296,14,6,-60,116,108,-60,0
57,-67,4271,2296,17,4,-60,116,108,-60,0
40,-67,4276,2292,22,0,-64,116,114,-64,1
39,-72,4279,2277,23,1,-64,116,114,-64,1
38,-65,4300,2282,15,4,-64,116,114,-64,0
47,-81,4260,2284,13,6,-64,116,114,-64,0
61,-43,4302,2284,20,0,-64,116,114,-64,0
54,-60,4290,2283,17,2,-64,116,114,-64,0
30,-70,4290,2282,20,5,-64,116,114,-64,0
46,-73,4295,2288,24,4,-64,116,114,-64,0
42,-73,4283,2285,24,4,-64,116,114,-64,0
48,-73,4280,2280,25,3,-64,116,114,-64,0
57,-56,4286,2274,22,3,-64,116,114,-64,0
40,-59,4303,2295,16,1,-64,116,114,-64,0
28,-78,4296,2280,20,5,-60,118,116,-60,1
42,-58,4259,2285,18,6,-60,118,116,-60,0
41,-73,4306,2278,17,7,-60,118,116,-60,0
48,-58,4271,2264,14,6,-60,118,116,-60,0
49,-57,4297,2267,18,-1,-60,118,116,-60,0
44,-74,4280,2295,19,2,-59,113,115,-59,1
56,-78,4299,2294,12,8,-59,113,115,-59,0
45,-60,4296,2285,15,2,-59,113,115,-59,0
63,-70,4278,2286,17,8,-59,113,115,-59,0
49,-76,4286,2289,18,9,-59,113,115,-59,0
52,-76,4303,2283,15,1,-56,124,118,-56,1
58,-85,4320,2293,17,2,-56,124,118,-56,0
42,-67,4278,2283,22,6,-56,124,118,-56,0
60,-60,4269,2285,26,8,-56,124,118,-56,0
47,-60,4257,2287,21,8,-56,124,118,-56,0
59,-62,4290,2280,20,2,-66,118,114,-66,1
42,-55,4285,2276,17,5,-66,118,114,-66,0
53,-76,4297,2280,15,7,-66,118,114,-66,0
54,-63,4281,2285,22,3,-66,118,114,-66,0
48,-63,4282,2294,14,-1,-66,118,114,-66,0
46,-66,4259,2281,14,3,-64,120,120,-64,1
56,-67,4294,2282,21,4,-64,120,120,-64,0
46,-74,4268,2294,15,6,-64,120,120,-64,0
37,-75,4310,2278,14,2,-64,120,120,-64,0
54,-64,4292,2282,18,3,-64,120,120,-64,0
30,-70,4311,2278,16,3,-57,121,113,-57,1
53,-71,4286,2283,18,10,-57,121,113,-57,0
62,-59,4316,2287,17,11,-57,121,113,-57,0
51,-59,4312,2282,18,2,-57,121,113,-57,0
67,-65,4310,2285,18,4,-57,121,113,-57,0
57,-64,4310,2269,14,1,-58,122,114,-58,1
43,-63,4300,2274,15,6,-58,122,114,-58,0
44,-71,4265,2267,19,9,-58,122,114,-58,0
35,-58,4285,2279,23,2,-58,122,114,-58,0
51,-65,4305,2278,21,2,-60,114,120,-60,1
38,-69,4304,2273,20,3,-60,114,120,-60,1
51,-66,4272,2290,18,4,-60,114,120,-60,0
48,-64,4250,2293,20,7,-60,114,120,-60,0
61,-61,4294,2304,24,4,-60,114,120,-60,0
45,-69,4286,2298,20,4,-60,114,120,-60,0
47,-71,4284,2285,15,2,-61,113,113,-61,1
62,-83,4260,2285,18,2,-61,113,113,-61,0
43,-67,4290,2276,25,1,-61,113,113,-61,0
45,-70,4263,2284,23,5,-61,113,113,-61,0
40,-66,4244,2271,18,6,-61,113,113,-61,0
60,-62,4293,2275,17,4,-65,123,115,-65,1
46,-66,4264,2274,18,6,-65,123,115,-65,0
49,-74,4295,2274,16,6,-65,123,115,-65,0
54,-66,4258,2292,14,4,-65,123,115,-65,0
50,-75,4315,2278,20,5,-65,123,115,-65,0
48,-75,4294,2284,18,12,-59,113,113,-59,1
37,-81,4271,2277,13,-2,-59,113,113,-59,0
49,-77,4287,2282,15,-3,-59,113,113,-59,0
43,-68,4279,2278,21,7,-59,113,113,-59,0
50,-66,4272,2284,19,4,-59,113,113,-59,0
46,-66,4286,2284,13,9,-62,116,112,-62,1
52,-76,4292,2292,19,6,-62,116,112,-62,0
46,-63,4285,2293,20,4,-62,116,112,-62,0
44,-64,4296,2273,17,3,-62,116,112,-62,0
45,-84,4250,2290,20,6,-62,116,112,-62,0
37,-71,4297,2293,25,9,-53,119,117,-53,1
45,-69,4297,2277,16,4,-53,119,117,-53,0
56,-59,4269,2280,17,5,-53,119,117,-53,0
51,-48,4293,2281,23,5,-53,119,117,-53,0
38,-72,4291,2284,21,9,-53,119,117,-53,0
36,-66,4302,2289,15,6,-59,119,117,-59,1
42,-79,4284,2281,13,1,-59,119,117,-59,0
42,-66,4247,2290,19,6,-59,119,117,-59,0
39,-73,4269,2286,20,5,-59,119,117,-59,0
50,-70,4302,2285,19,2,-59,119,117,-59,0
51,-65,4284,2288,15,5,-60,122,118,-60,1
53,-71,4303,2294,12,2,-60,122,118,-60,0
54,-69,4269,2288,12,5,-60,122,118,-60,0
39,-53,4294,2285,20,4,-60,122,118,-60,0
51,-74,4283,2291,17,6,-60,122,118,-60,0
57,-61,4278,2295,13,10,-65,117,115,-65,1
36,-61,4284,2289,16,1,-65,117,115,-65,0
40,-71,4278,2273,21,3,-65,117,115,-65,0
41,-71,4274,2279,20,6,-65,117,115,-65,0
52,-64,4266,2280,22,6,-65,117,115,-65,0
49,-32,4262,2279,22,3,-65,117,115,-65,0
46,-55,4309,2282,15,1,-65,117,115,-65,0
49,-76,4281,2285,15,4,-65,117,115,-65,0
60,-69,4277,2283,22,3,-65,117,115,-65,0
47,-50,4251,2264,23,2,-65,117,115,-65,0
40,-67,4283,2285,18,2,-65,117,115,-65,0
58,-65,4277,2297,16,0,-57,117,117,-57,1
54,-63,4294,2295,23,5,-57,117,117,-57,0
38,-63,4262,2297,24,0,-57,117,117,-57,0
57,-68,4278,2278,20,0,-57,117,117,-57,0
53,-70,4255,2285,20,3,-57,117,117,-57,0
53,-69,4268,2277,21,2,-63,121,121,-63,1
46,-45,4262,2295,19,0,-63,121,121,-63,0
42,-82,4283,2299,19,1,-63,121,121,-63,0
58,-64,4307,2283,22,3,-63,121,121,-63,0
49,-78,4290,2271,21,10,-63,121,121,-63,0
44,-78,4300,2283,22,2,-62,120,114,-62,1
46,-64,4280,2283,18,-1,-62,120,114,-62,0
59,-46,4263,2285,19,4,-62,120,114,-62,0
54,-60,4284,2288,26,5,-62,120,114,-62,0
53,-80,4295,2285,21,6,-62,120,114,-62,0
57,-81,4297,2290,12,3,-61,111,113,-61,1
64,-68,4284,2277,18,0,-61,111,113,-61,0
45,-65,4279,2281,20,5,-61,111,113,-61,0
48,-61,4309,2282,16,4,-61,111,113,-61,0
49,-65,4288,2286,14,9,-61,111,113,-61,0
67,-49,4309,2292,16,5,-66,122,112,-66,1
56,-57,4278,2294,19,3,-66,122,112,-66,0
63,-61,4289,2290,19,0,-66,122,112,-66,0
56,-65,4300,2281,15,5,-66,122,112,-66,0
37,-77,4287,2287,17,7,-66,122,112,-66,0
46,-80,4256,2288,20,4,-58,112,126,-58,1
37,-65,4310,2279,16,5,-58,112,126,-58,0
40,-50,4292,2265,14,5,-58,112,126,-58,0
47,-58,4299,2277,17,6,-58,112,126,-58,0
47,-75,4278,2284,18,4,-58,112,126,-58,0
56,-72,4312,2290,22,3,-63,121,115,-63,0
40,-65,4300,2295,22,3,-63,121,115,-63,0
55,-48,4309,2274,22,2,-63,121,115,-63,0
33,-72,4276,2276,15,2,-63,121,115,-63,0
34,-80,4292,2280,15,7,-63,121,115,-63,0
29,-65,4288,2284,22,9,-65,113,113,-65,1
44,-65,4287,2283,15,9,-65,113,113,-65,0
44,-76,4265,2283,15,7,-65,113,113,-65,0
50,-67,4285,2283,18,6,-65,113,113,-65,0
58,-84,4304,2291,14,8,-65,113,113,-65,0
50,-78,4289,2307,18,7,-60,114,108,-60,1
41,-66,4286,2300,13,6,-60,114,108,-60,0
53,-76,4285,2280,22,1,-60,114,108,-60,0
54,-68,4284,2282,20,4,-60,114,108,-60,0
64,-82,4287,2295,17,1,-60,114,108,-60,0
55,-50,4303,2285,22,2,-64,122,108,-64,1
53,-71,4298,2273,18,0,-64,122,108,-64,0
53,-64,4302,2278,21,3,-64,122,108,-64,0
55,-46,4277,2273,13,6,-64,122,108,-64,0
46,-67,4285,2275,3,-1,-64,122,108,-64,0
51,-58,4247,2276,13,3,-57,123,115,-57,1
44,-57,4279,2285,15,7,-57,123,115,-57,0
49,-48,4288,2281,14,8,-57,123,115,-57,0
73,-71,4274,2273,10,2,-57,123,115,-57,0
57,-74,4275,2285,17,2,-57,123,115,-57,0
51,-84,4286,2281,24,4,-57,113,115,-57,1
57,-78,4303,2279,20,-2,-57,113,115,-57,0
33,-78,4291,2280,22,4,-57,113,115,-57,0
59,-65,4274,2275,23,8,-57,113,115,-57,0
64,-73,4265,2285,14,5,-57,113,115,-57,0
47,-71,4295,2277,16,1,-62,118,116,-62,1
43,-63,4296,2282,20,5,-62,118,116,-62,0
61,-49,4277,2283,21,5,-62,118,116,-62,0
53,-68,4282,2288,20,9,-62,118,116,-62,0
54,-63,4326,2284,17,7,-62,118,116,-62,0
52,-74,4299,2289,14,3,-68,120,118,-68,1
41,-76,4257,2280,18,6,-68,120,118,-68,0
27,-71,4273,2282,18,-1,-68,120,118,-68,0
46,-69,4267,2283,18,0,-68,120,118,-68,0
54,-52,4280,2274,17,6,-68,120,118,-68,0
50,-67,4303,2284,19,3,-69,117,113,-69,1
67,-65,4275,2289,21,5,-69,117,113,-69,0
46,-69,4279,2288,20,6,-69,117,113,-69,0
44,-61,4268,2290,18,4,-69,117,113,-69,0
64,-55,4293,2284,15,7,-69,117,113,-69,0
38,-62,4301,2283,18,5,-65,109,119,-65,1
44,-72,4274,2289,16,3,-65,109,119,-65,0
46,-64,4288,2285,17,7,-65,109,119,-65,0
46,-56,4258,2285,18,4,-65,109,119,-65,0
52,-72,4307,2290,23,7,-65,109,119,-65,0
32,-66,4317,2268,21,4,-65,109,119,-65,0
49,-87,4257,2278,18,5,-65,109,119,-65,0
35,-83,4269,2289,15,-1,-65,109,119,-65,0
47,-60,4278,2290,20,-1,-65,109,119,-65,0
35,-56,4288,2295,24,-2,-65,109,119,-65,0
56,-63,4261,2291,20,-3,-65,109,119,-65,0
36,-63,4297,2276,21,7,-65,113,109,-65,1
57,-64,4271,2274,17,7,-65,113,109,-65,0
33,-72,4265,2293,16,4,-65,113,109,-65,0
51,-54,4318,2309,14,-1,-65,113,109,-65,0
46,-83,4267,2303,17,4,-65,113,109,-65,0
57,-69,4299,2290,23,7,-69,115,117,-69,1
55,-56,4282,2284,17,3,-69,115,117,-69,0
45,-59,4273,2286,14,3,-69,115,117,-69,0
51,-63,4287,2277,16,-1,-69,115,117,-69,0
44,-64,4280,2284,21,1,-69,115,117,-69,0
31,-64,4304,2289,21,6,-63,125,109,-63,0
43,-63,4302,2302,20,5,-63,125,109,-63,0
61,-56,4299,2301,18,6,-63,125,109,-63,0
55,-78,4268,2286,15,4,-63,125,109,-63,0
53,-66,4285,2293,14,6,-63,125,109,-63,0
65,-72,4303,2283,16,6,-68,122,112,-68,1
61,-59,4272,2270,17,0,-68,122,112,-68,0
46,-71,4267,2280,14,3,-68,122,112,-68,0
55,-75,4284,2287,24,7,-68,122,112,-68,0
51,-76,4310,2287,25,3,-68,122,112,-68,0
36,-71,4260,2292,25,0,-66,120,116,-66,1
45,-82,4282,2295,20,-1,-66,120,116,-66,0
62,-75,4285,2291,15,2,-66,120,116,-66,0
61,-69,4271,2283,21,3,-66,120,116,-66,0
62,-67,4300,2287,20,0,-66,120,116,-66,0
49,-58,4285,2280,21,3,-62,114,114,-62,1
36,-55,4300,2284,23,1,-62,114,114,-62,0
54,-81,4278,2279,23,3,-62,114,114,-62,0
48,-81,4294,2280,21,5,-62,114,114,-62,0
50,-56,4252,2285,18,0,-62,114,114,-62,0
58,-71,4290,2278,20,-2,-62,114,114,-62,0
34,-74,4276,2291,17,5,-62,114,114,-62,0
42,-67,4264,2272,18,3,-62,114,114,-62,0
57,-68,4290,2268,21,6,-62,114,114,-62,0
54,-61,4307,2270,17,3,-62,114,114,-62,0
62,-57,4299,2274,19,6,-62,120,110,-62,1
46,-64,4276,2283,18,6,-62,120,110,-62,0
53,-87,4307,2287,16,5,-62,120,110,-62,0
47,-87,4294,2285,16,1,-62,120,110,-62,0
37,-76,4286,2303,19,2,-62,120,110,-62,0
44,-55,4306,2290,22,4,-58,114,110,-58,0
52,-59,4281,2301,20,-2,-58,114,110,-58,0
43,-65,4280,2298,18,2,-58,114,110,-58,0
49,-72,4287,2298,19,5,-58,114,110,-58,0
60,-85,4298,2284,20,8,-58,114,110,-58,0
48,-76,4289,2281,21,2,-59,121,117,-59,1
52,-68,4263,2286,20,0,-59,121,117,-59,0
46,-73,4288,2296,17,2,-59,121,117,-59,0
59,-72,4282,2276,18,1,-59,121,117,-59,0
40,-64,4270,2279,16,3,-59,121,117,-59,0
46,-76,4278,2287,24,10,-59,119,115,-59,1
57,-67,4288,2280,19,5,-59,119,115,-59,0
56,-61,4287,2279,16,2,-59,119,115,-59,0
69,-59,4297,2287,14,1,-59,119,115,-59,0
47,-73,4286,2289,20,4,-59,119,115,-59,0
39,-75,4293,2273,16,5,-71,113,115,-71,0
51,-67,4274,2271,11,1,-71,113,115,-71,0
52,-75,4302,2282,18,3,-71,113,115,-71,0
38,-65,4289,2282,18,1,-71,113,115,-71,0
56,-74,4279,2282,20,1,-71,113,115,-71,0
56,-66,4296,2285,22,-3,-60,122,122,-60,0
53,-71,4277,2289,16,2,-60,122,122,-60,0
48,-51,4276,2290,19,0,-60,122,122,-60,0
36,-75,4278,2270,18,-1,-60,122,122,-60,0
31,-82,4277,2273,16,-1,-60,122,122,-60,0
44,-51,4303,2286,20,-2,-65,113,109,-65,1
54,-59,4275,2302,16,2,-65,113,109,-65,0
49,-73,4304,2291,18,6,-65,113,109,-65,0
42,-87,4264,2289,18,2,-65,113,109,-65,0
59,-64,4282,2278,15,3,-65,113,109,-65,0
53,-67,4286,2285,19,6,-63,115,115,-63,1
58,-71,4294,2296,24,-2,-63,115,115,-63,0
48,-57,4281,2285,17,1,-63,115,115,-63,0
49,-70,4287,2277,14,5,-63,115,115,-63,0
41,-72,4281,2282,21,5,-63,115,115,-63,0
51,-61,4282,2281,25,4,-58,118,114,-58,1
39,-52,4298,2279,19,8,-58,118,114,-58,0
50,-53,4301,2281,18,4,-58,118,114,-58,0
49,-83,4299,2290,18,2,-58,118,114,-58,0
37,-63,4283,2285,18,0,-58,118,114,-58,0
64,-63,4278,2271,20,5,-58,118,114,-58,0
57,-65,4331,2271,21,-1,-58,118,114,-58,0
45,-57,4304,2273,15,-5,-58,118,114,-58,0
55,-69,4289,2287,19,6,-58,118,114,-58,0
44,-82,4282,2282,21,4,-58,118,114,-58,0
37,-62,4277,2283,22,5,-58,118,114,-58,0
36,-70,4279,2290,25,8,-59,121,119,-59,0
52,-73,4282,2297,20,6,-59,121,119,-59,0
41,-72,4306,2286,17,-1,-59,121,119,-59,0
57,-63,4269,2282,16,3,-59,121,119,-59,0
48,-63,4266,2291,16,4,-59,121,119,-59,0
49,-68,4292,2272,19,4,-65,117,109,-65,1
48,-71,4250,2283,20,5,-65,117,109,-65,0
40,-76,4290,2285,19,2,-65,117,109,-65,0
45,-80,4274,2278,23,7,-65,117,109,-65,0
43,-72,4295,2284,16,9,-65,117,109,-65,0
49,-97,4285,2273,16,8,-64,114,114,-64,1
35,-51,4297,2266,18,8,-64,114,114,-64,0
40,-70,4329,2277,22,3,-64,114,114,-64,0
47,-54,4281,2288,17,2,-64,114,114,-64,0
56,-72,4275,2280,18,0,-64,114,114,-64,0
39,-80,4288,2287,18,4,-64,120,108,-64,1
38,-74,4270,2283,21,7,-64,120,108,-64,0
38,-62,4300,2277,23,4,-64,120,108,-64,0
39,-53,4312,2294,25,2,-64,120,108,-64,0
36,-82,4260,2297,18,3,-64,120,108,-64,0
42,-67,4296,2288,17,6,-61,119,105,-61,1
47,-62,4279,2278,9,2,-61,119,105,-61,0
39,-58,4294,2298,10,-3,-61,119,105,-61,0
41,-79,4263,2295,15,6,-61,119,105,-61,0
56,-74,4273,2298,16,9,-61,119,105,-61,0
41,-71,4310,2278,21,9,-58,114,112,-58,1
38,-47,4299,2294,25,5,-58,114,112,-58,0
48,-58,4264,2296,23,7,-58,114,112,-58,0
64,-70,4286,2282,18,0,-58,114,112,-58,0
56,-76,4296,2287,16,3,-58,114,112,-58,0
50,-63,4319,2283,19,3,-59,113,111,-59,1
57,-73,4292,2293,17,0,-59,113,111,-59,0
51,-64,4294,2283,18,1,-59,113,111,-59,0
59,-77,4281,2292,19,8,-59,113,111,-59,0
48,-65,4258,2291,22,4,-59,113,111,-59,0
58,-63,4287,2285,25,0,-58,118,114,-58,1
40,-64,4291,2286,19,2,-58,118,114,-58,0
40,-63,4275,2287,19,8,-58,118,114,-58,0
49,-72,4289,2284,20,10,-58,118,114,-58,0
52,-78,4298,2284,16,7,-58,118,114,-58,0
60,-69,4276,2295,17,8,-55,117,117,-55,1
51,-61,4309,2276,15,6,-55,117,117,-55,0
44,-62,4275,2297,13,7,-55,117,117,-55,0
65,-70,4299,2288,14,4,-55,117,117,-55,0
55,-66,4261,2289,11,3,-55,117,117,-55,0
44,-59,4272,2285,15,2,-59,121,111,-59,1
39,-67,4283,2282,17,3,-59,121,111,-59,0
44,-68,4273,2296,23,5,-59,121,111,-59,0
23,-75,4277,2289,18,9,-59,121,111,-59,0
46,-66,4290,2295,13,-1,-59,121,111,-59,0
59,-73,4302,2292,18,5,-65,111,111,-65,1
41,-55,4264,2281,27,5,-65,111,111,-65,0
51,-72,4266,2273,20,5,-65,111,111,-65,0
63,-63,4288,2286,23,9,-65,111,111,-65,0
48,-68,4306,2281,17,6,-65,111,111,-65,0
52,-72,4270,2286,18,5,-66,120,116,-66,1
46,-70,4273,2283,16,3,-66,120,116,-66,0
49,-52,4288,2280,14,5,-66,120,116,-66,0
56,-72,4267,2290,17,10,-66,120,116,-66,0
57,-72,4307,2291,21,10,-66,124,112,-66,1
47,-65,4294,2295,21,8,-60,124,112,-60,1
41,-90,4301,2298,24,3,-60,124,112,-60,0
60,-54,4301,2284,15,5,-60,124,112,-60,0
32,-72,4308,2290,19,4,-60,124,112,-60,0
39,-66,4297,2293,22,3,-60,124,112,-60,0
46,-76,4310,2287,21,5,-60,120,108,-60,1
53,-62,4256,2293,24,5,-60,120,108,-60,0
54,-56,4268,2291,21,11,-60,120,108,-60,0
59,-87,4289,2278,25,7,-60,120,108,-60,0
43,-63,4293,2288,18,4,-60,120,108,-60,0
55,-64,4299,2274,8,-2,-63,121,111,-63,1
55,-78,4293,2270,11,2,-63,121,111,-63,0
51,-74,4282,2290,20,7,-63,121,111,-63,0
56,-74,4303,2289,21,7,-63,121,111,-63,0
41,-73,4272,2284,16,12,-63,121,111,-63,0
55,-59,4300,2281,19,6,-61,119,111,-61,0
41,-67,4317,2279,29,-2,-61,119,111,-61,0
55,-77,4261,2288,24,2,-61,119,111,-61,0
56,-61,4289,2289,16,4,-61,119,111,-61,0
50,-76,4298,2288,12,2,-61,119,111,-61,0
50,-63,4292,2284,9,5,-61,119,111,-61,0
41,-55,4314,2292,16,-1,-61,119,111,-61,0
38,-72,4296,2274,16,-2,-61,119,111,-61,0
45,-65,4302,2277,15,0,-61,119,111,-61,0
47,-57,4298,2288,22,6,-61,119,111,-61,0
43,-83,4269,2295,21,4,-61,119,111,-61,0
55,-57,4277,2302,15,6,-60,122,106,-60,1
47,-64,4286,2283,15,8,-60,122,106,-60,0
52,-67,4286,2290,19,3,-60,122,106,-60,0
39,-77,4271,2297,17,-1,-60,122,106,-60,0
56,-62,4282,2287,16,4,-60,122,106,-60,0
44,-63,4293,2293,21,1,-64,122,114,-64,1
24,-65,4286,2288,18,5,-64,122,114,-64,0
50,-44,4295,2294,18,7,-64,122,114,-64,0
53,-69,4292,2290,14,2,-64,122,114,-64,0
57,-54,4265,2289,18,2,-64,122,114,-64,0
52,-69,4272,2288,22,4,-64,122,120,-64,0
41,-60,4255,2282,18,6,-64,122,120,-64,0
38,-70,4280,2277,19,4,-64,122,120,-64,0
54,-68,4297,2288,18,6,-64,122,120,-64,0
49,-65,4288,2283,18,-1,-64,122,120,-64,0
62,-74,4317,2293,16,-2,-57,121,115,-57,1
61,-68,4268,2284,15,2,-57,121,115,-57,0
55,-56,4279,2283,16,-1,-57,121,115,-57,0
49,-62,4291,2277,22,5,-57,121,115,-57,0
50,-69,4276,2286,18,5,-57,121,115,-57,0
39,-81,4305,2282,19,8,-57,119,115,-57,1
47,-62,4296,2276,21,8,-57,119,115,-57,0
46,-59,4315,2266,24,3,-57,119,115,-57,0
47,-74,4301,2258,17,10,-57,119,115,-57,0
46,-65,4266,2267,13,6,-57,119,115,-57,0
55,-67,4280,2276,13,3,-66,122,122,-66,1
57,-61,4291,2276,12,1,-66,122,122,-66,0
49,-82,4281,2289,19,2,-66,122,122,-66,0
54,-64,4285,2281,23,5,-66,122,122,-66,0
61,-59,4299,2292,20,5,-66,122,122,-66,0
48,-70,4296,2296,17,2,-57,119,115,-57,1
47,-65,4268,2283,18,-2,-57,119,115,-57,0
64,-54,4280,2279,12,-2,-57,119,115,-57,0
35,-53,4279,2287,15,0,-57,119,115,-57,0
61,-74,4304,2284,16,5,-57,119,115,-57,0
62,-72,4312,2289,19,4,-63,115,111,-63,1
32,-73,4300,2282,18,6,-63,115,111,-63,0
61,-73,4296,2289,15,4,-63,115,111,-63,0
53,-64,4303,2273,11,5,-63,115,111,-63,0
53,-60,4298,2273,15,2,-63,115,111,-63,0
46,-71,4281,2281,15,4,-57,115,111,-57,1
56,-60,4313,2284,17,5,-57,115,111,-57,0
49,-75,4272,2300,21,6,-57,115,111,-57,0
54,-65,4285,2299,17,5,-57,115,111,-57,0
60,-69,4309,2276,17,10,-56,112,112,-56,1
47,-65,4281,2282,18,5,-56,112,112,-56,1
48,-77,4297,2288,19,5,-56,112,112,-56,0
58,-52,4293,2293,17,5,-56,112,112,-56,0
51,-83,4279,2296,16,8,-56,112,112,-56,0
44,-65,4272,2295,16,5,-56,112,112,-56,0
39,-80,4304,2289,17,7,-66,120,110,-66,1
53,-66,4290,2297,15,8,-66,120,110,-66,0
54,-69,4272,2281,18,8,-66,120,110,-66,0
54,-60,4299,2289,23,6,-66,120,110,-66,0
49,-70,4294,2295,17,-2,-66,120,110,-66,0
50,-79,4307,2289,22,-3,-57,119,111,-57,1
45,-55,4263,2298,17,7,-57,119,111,-57,0
49,-72,4256,2288,13,2,-57,119,111,-57,0
53,-60,4260,2297,21,-2,-57,119,111,-57,0
47,-64,4268,2288,25,5,-57,119,111,-57,0
61,-54,4264,2280,17,8,-65,119,113,-65,1
65,-59,4303,2285,14,1,-65,119,113,-65,0
54,-74,4266,2295,13,1,-65,119,113,-65,0
37,-64,4312,2296,15,7,-65,119,113,-65,0
61,-64,4274,2298,18,5,-65,119,113,-65,0
31,-62,4294,2299,16,9,-62,116,110,-62,1
70,-56,4322,2300,11,1,-62,116,110,-62,0
54,-59,4287,2286,18,1,-62,116,110,-62,0
44,-70,4276,2282,14,6,-62,116,110,-62,0
45,-64,4284,2277,17,10,-62,116,110,-62,0
50,-52,4285,2287,17,8,-60,110,110,-60,1
40,-82,4294,2288,19,2,-60,110,110,-60,0
52,-69,4281,2283,27,6,-60,110,110,-60,0
43,-69,4282,2285,22,5,-60,110,110,-60,0
45,-73,4259,2297,19,2,-60,110,110,-60,0
48,-73,4274,2287,19,1,-60,110,110,-60,0
50,-81,4291,2286,24,5,-60,110,110,-60,0
34,-75,4301,2279,26,6,-60,110,110,-60,0
51,-78,4287,2290,20,6,-60,110,110,-60,0
63,-63,4288,2280,17,6,-60,110,110,-60,0
53,-67,4269,2282,18,5,-60,110,110,-60,0
57,-67,4276,2281,14,4,-57,117,113,-57,1
64,-52,4271,2279,18,4,-57,117,113,-57,0
43,-58,4304,2280,17,7,-57,117,113,-57,0
41,-63,4300,2280,20,4,-57,117,113,-57,0
46,-56,4283,2294,19,2,-57,117,113,-57,0
38,-58,4283,2297,19,4,-61,117,115,-61,1
38,-70,4309,2287,19,6,-61,117,115,-61,0
41,-71,4281,2285,18,7,-61,117,115,-61,0
46,-72,4300,2277,16,5,-61,117,115,-61,0
50,-76,4298,2288,19,5,-61,117,115,-61,0
53,-64,4299,2294,21,10,-59,113,113,-59,1
47,-80,4307,2287,23,8,-59,113,113,-59,0
45,-81,4288,2284,22,-1,-59,113,113,-59,0
30,-85,4288,2285,24,2,-59,113,113,-59,0
47,-60,4285,2294,19,6,-59,113,113,-59,0
43,-78,4323,2290,18,7,-66,120,114,-66,1
43,-68,4261,2287,22,1,-66,120,114,-66,0
41,-76,4271,2287,20,8,-66,120,114,-66,0
50,-78,4271,2292,20,3,-66,120,114,-66,0
58,-77,4309,2291,24,-1,-66,120,114,-66,0
36,-66,4302,2297,20,0,-61,117,117,-61,0
40,-69,4319,2287,18,2,-61,117,117,-61,0
36,-61,4271,2286,22,3,-61,117,117,-61,0
47,-69,4275,2290,23,3,-61,117,117,-61,0
42,-72,4278,2295,23,0,-61,117,117,-61,0
43,-67,4290,2292,24,1,-59,119,109,-59,1
48,-75,4257,2290,20,2,-59,119,109,-59,0
52,-73,4294,2303,22,5,-59,119,109,-59,0
54,-71,4295,2306,18,10,-59,119,109,-59,0
41,-66,4285,2298,18,4,-59,119,109,-59,0
58,-71,4300,2291,19,9,-65,123,111,-65,1
61,-67,4284,2302,19,1,-65,123,111,-65,0
60,-69,4293,2302,19,4,-65,123,111,-65,0
35,-65,4244,2299,15,10,-65,123,111,-65,0
41,-57,4276,2284,18,8,-65,123,111,-65,0
33,-73,4284,2283,18,8,-55,115,111,-55,1
45,-67,4270,2302,19,3,-55,115,111,-55,0
48,-73,4279,2292,16,5,-55,115,111,-55,0
36,-60,4293,2298,18,5,-55,115,111,-55,0
45,-72,4280,2293,17,6,-59,117,111,-59,1
42,-70,4287,2274,18,5,-59,117,111,-59,1
55,-72,4264,2281,17,4,-59,117,111,-59,0
36,-52,4296,2285,14,-3,-59,117,111,-59,0
40,-74,4305,2302,17,-3,-59,117,111,-59,0
42,-64,4314,2312,22,5,-59,117,111,-59,0
46,-62,4292,2283,15,5,-65,113,107,-65,1
47,-76,4281,2282,15,1,-65,113,107,-65,0
63,-71,4285,2298,16,8,-65,113,107,-65,0
44,-72,4265,2294,15,6,-65,113,107,-65,0
37,-75,4274,2287,17,5,-65,113,107,-65,0
48,-77,4288,2280,18,2,-64,116,118,-64,1
51,-82,4248,2281,20,-3,-64,116,118,-64,0
60,-71,4279,2281,19,-2,-64,116,118,-64,0
51,-78,4274,2288,21,2,-64,116,118,-64,0
44,-65,4306,2279,19,4,-64,116,118,-64,0
36,-67,4269,2288,17,7,-57,113,111,-57,1
66,-82,4272,2295,17,5,-57,113,111,-57,0
60,-64,4277,2299,19,-2,-57,113,111,-57,0
56,-76,4263,2288,23,2,-57,113,111,-57,0
53,-62,4281,2287,19,0,-57,113,111,-57,0
33,-77,4280,2295,19,-1,-67,117,113,-67,1
48,-63,4295,2283,23,0,-67,117,113,-67,0
41,-60,4280,2290,17,3,-67,117,113,-67,0
47,-58,4291,2290,13,8,-67,117,113,-67,0
57,-76,4281,2289,19,1,-67,117,113,-67,0
31,-70,4287,2278,15,-1,-65,121,121,-65,1
53,-68,4293,2271,18,7,-65,121,121,-65,0
46,-67,4291,2275,23,5,-65,121,121,-65,0
47,-71,4279,2293,14,4,-65,121,121,-65,0
52,-68,4293,2275,18,3,-65,121,121,-65,0
42,-69,4257,2274,22,1,-61,121,115,-61,1
64,-71,4290,2280,19,5,-61,121,115,-61,0
53,-67,4265,2291,21,5,-61,121,115,-61,0
57,-81,4269,2291,21,-2,-61,121,115,-61,0
32,-82,4271,2288,14,5,-61,121,115,-61,0
53,-74,4283,2288,13,8,-60,124,120,-60,0
49,-61,4289,2292,21,6,-60,124,120,-60,0
32,-64,4284,2280,20,7,-60,124,120,-60,0
45,-73,4274,2288,15,6,-60,124,120,-60,0
48,-60,4277,2301,21,3,-60,124,120,-60,0
44,-74,4304,2281,26,-1,-60,124,120,-60,0
44,-72,4279,2294,20,1,-60,124,120,-60,0
47,-60,4329,2289,18,4,-60,124,120,-60,0
62,-73,4283,2285,22,-2,-60,124,120,-60,0
56,-82,4281,2288,22,-4,-60,124,120,-60,0
51,-71,4288,2294,18,2,-63,117,113,-63,1
53,-50,4274,2299,18,0,-63,117,113,-63,1
53,-84,4298,2285,20,0,-63,117,113,-63,0
49,-72,4273,2278,20,3,-63,117,113,-63,0
53,-72,4263,2278,21,4,-63,117,113,-63,0
63,-60,4270,2290,18,4,-63,117,113,-63,0
57,-71,4266,2303,14,2,-59,121,117,-59,1
52,-72,4272,2297,19,4,-59,121,117,-59,0
49,-66,4304,2283,20,3,-59,121,117,-59,0
54,-64,4270,2281,24,0,-59,121,117,-59,0
40,-75,4281,2287,22,5,-59,121,117,-59,0
57,-58,4313,2279,24,6,-63,109,115,-63,1
60,-62,4321,2285,16,9,-63,109,115,-63,0
77,-63,4280,2309,16,7,-63,109,115,-63,0
48,-63,4297,2306,15,8,-63,109,115,-63,0
54,-60,4265,2309,16,4,-63,109,115,-63,0
39,-52,4276,2302,13,2,-66,118,112,-66,1
54,-67,4281,2289,16,8,-66,118,112,-66,0
63,-68,4255,2288,19,5,-66,118,112,-66,0
62,-52,4292,2294,25,-1,-66,118,112,-66,0
31,-62,4291,2290,18,12,-62,118,114,-62,1
42,-60,4286,2290,13,13,-62,118,114,-62,1
60,-65,4274,2301,20,6,-62,118,114,-62,0
53,-65,4284,2303,23,7,-62,118,114,-62,0
45,-54,4302,2270,17,11,-62,118,114,-62,0
43,-64,4289,2276,16,7,-62,118,114,-62,0
35,-64,4257,2274,14,7,-66,118,116,-66,1
48,-75,4296,2271,13,5,-66,118,116,-66,0
48,-67,4299,2274,21,2,-66,118,116,-66,0
47,-64,4279,2288,16,8,-66,118,116,-66,0
47,-60,4279,2292,13,5,-66,118,116,-66,0
68,-58,4250,2305,17,4,-61,111,109,-61,0
45,-71,4314,2292,13,6,-61,111,109,-61,0
47,-58,4288,2291,14,4,-61,111,109,-61,0
51,-67,4276,2276,16,2,-61,111,109,-61,0
42,-79,4270,2296,15,4,-61,111,109,-61,0
59,-72,4274,2296,15,3,-59,113,117,-59,1
47,-63,4251,2298,19,0,-59,113,117,-59,0
64,-54,4307,2289,20,1,-59,113,117,-59,0
51,-65,4306,2295,19,4,-59,113,117,-59,0
50,-67,4304,2289,17,2,-59,113,117,-59,0
60,-53,4313,2277,19,4,-67,111,107,-67,1
54,-59,4253,2281,15,5,-67,111,107,-67,0
37,-72,4290,2305,17,1,-67,111,107,-67,0
37,-57,4294,2285,19,2,-67,111,107,-67,0
57,-62,4301,2284,17,4,-67,111,107,-67,0
52,-69,4280,2283,16,0,-64,120,116,-64,1
64,-67,4259,2293,22,-4,-64,120,116,-64,0
39,-67,4292,2299,17,-2,-64,120,116,-64,0
44,-69,4293,2307,18,0,-64,120,116,-64,0
48,-63,4303,2297,17,4,-64,120,116,-64,0
45,-61,4275,2291,19,8,-57,119,117,-57,1
52,-70,4286,2287,22,3,-57,119,117,-57,0
69,-73,4308,2287,17,2,-57,119,117,-57,0
48,-82,4294,2297,13,3,-57,119,117,-57,0
47,-83,4268,2280,12,7,-57,119,117,-57,0
54,-66,4279,2281,19,8,-63,109,111,-63,0
27,-68,4280,2287,25,7,-63,109,111,-63,0
42,-66,4296,2295,17,3,-63,109,111,-63,0
49,-60,4268,2291,15,6,-63,109,111,-63,0
41,-76,4308,2293,12,1,-63,109,111,-63,0
39,-79,4283,2280,21,-2,-65,117,113,-65,1
35,-67,4309,2284,21,8,-65,117,113,-65,0
57,-50,4258,2283,16,4,-65,117,113,-65,0
43,-76,4279,2286,18,1,-65,117,113,-65,0
42,-83,4285,2293,18,0,-65,117,113,-65,0
44,-58,4295,2290,18,1,-64,114,110,-64,1
65,-60,4272,2286,22,4,-64,114,110,-64,0
50,-77,4297,2287,20,-1,-64,114,110,-64,0
45,-65,4263,2289,20,0,-64,114,110,-64,0
53,-77,4272,2299,22,2,-64,114,110,-64,0
72,-72,4249,2299,16,3,-63,115,115,-63,1
52,-72,4280,2291,20,6,-63,115,115,-63,0
51,-68,4273,2276,18,5,-63,115,115,-63,0
52,-58,4290,2291,15,3,-63,115,115,-63,0
39,-71,4273,2287,17,7,-63,115,115,-63,0
48,-55,4267,2296,16,6,-65,121,107,-65,1
40,-62,4267,2293,16,5,-65,121,107,-65,0
55,-59,4254,2288,17,4,-65,121,107,-65,0
62,-56,4284,2288,13,0,-65,121,107,-65,0
35,-65,4275,2288,18,3,-65,121,107,-65,0
44,-74,4273,2278,19,3,-65,121,107,-65,0
35,-67,4299,2277,19,7,-65,121,107,-65,0
48,-62,4287,2279,20,6,-65,121,107,-65,0
32,-51,4265,2291,21,6,-65,121,107,-65,0
55,-69,4278,2292,23,3,-65,121,107,-65,0
46,-67,4254,2303,25,-2,-65,121,107,-65,0
54,-80,4292,2303,19,8,-64,116,112,-64,0
51,-60,4269,2288,22,6,-64,116,112,-64,0
58,-81,4274,2279,23,3,-64,116,112,-64,0
37,-80,4294,2294,18,9,-64,116,112,-64,0
44,-80,4281,2293,18,6,-64,116,112,-64,0
54,-76,4291,2280,17,2,-61,115,105,-61,1
52,-63,4300,2294,14,4,-61,115,105,-61,0
49,-64,4310,2268,16,3,-61,115,105,-61,0
41,-73,4307,2277,18,1,-61,115,105,-61,0
51,-82,4273,2288,21,2,-61,115,105,-61,0
60,-72,4272,2286,18,6,-62,118,112,-62,1
57,-60,4281,2279,14,6,-62,118,112,-62,0
69,-80,4263,2289,19,6,-62,118,112,-62,0
57,-68,4289,2281,20,3,-62,118,112,-62,0
57,-66,4286,2298,26,2,-62,118,112,-62,0
37,-88,4300,2292,19,4,-60,116,116,-60,1
38,-63,4277,2288,15,5,-60,116,116,-60,0
47,-76,4286,2290,15,2,-60,116,116,-60,0
35,-66,4294,2294,13,-3,-60,116,116,-60,0
43,-74,4275,2303,17,-2,-60,116,116,-60,0
45,-70,4266,2303,19,-2,-62,128,122,-62,1
35,-51,4306,2297,19,3,-62,128,122,-62,0
48,-76,4281,2298,19,12,-62,128,122,-62,0
52,-84,4308,2287,19,8,-62,128,122,-62,0
41,-53,4300,2285,20,1,-62,128,122,-62,0
43,-70,4271,2287,15,2,-63,115,103,-63,1
45,-76,4296,2286,20,8,-63,115,103,-63,0
50,-66,4287,2275,20,9,-63,115,103,-63,0
43,-54,4295,2287,18,2,-63,115,103,-63,0
57,-71,4250,2291,25,6,-63,115,103,-63,0
69,-57,4298,2286,22,5,-63,117,111,-63,1
60,-56,4306,2288,15,-1,-63,117,111,-63,0
58,-52,4282,2293,13,5,-63,117,111,-63,0
38,-89,4296,2297,18,9,-63,117,111,-63,0
56,-68,4296,2307,22,3,-63,117,111,-63,0
59,-67,4262,2302,22,7,-64,116,110,-64,1
45,-78,4300,2292,18,11,-64,116,110,-64,0
38,-71,4268,2285,16,4,-64,116,110,-64,0
40,-54,4278,2282,18,2,-64,116,110,-64,0
46,-59,4282,2295,16,-2,-64,116,110,-64,0
37,-67,4267,2289,20,1,-63,117,111,-63,1
40,-71,4301,2293,21,4,-63,117,111,-63,0
43,-69,4322,2293,20,1,-63,117,111,-63,0
55,-62,4273,2288,14,5,-63,117,111,-63,0
48,-78,4302,2296,15,7,-63,117,111,-63,0
40,-54,4293,2281,19,6,-59,123,113,-59,1
51,-61,4297,2298,17,2,-59,123,113,-59,0
66,-68,4298,2291,16,1,-59,123,113,-59,0
51,-64,4292,2291,15,2,-59,123,113,-59,0
40,-74,4301,2283,13,1,-59,123,113,-59,0
50,-55,4252,2296,14,2,-59,121,117,-59,1
60,-60,4274,2290,18,3,-59,121,117,-59,0
50,-62,4273,2285,19,1,-59,121,117,-59,0
42,-69,4283,2289,14,-2,-59,121,117,-59,0
19,-59,4309,2283,14,2,-59,121,117,-59,0
37,-88,4291,2284,16,6,-64,116,112,-64,1
46,-66,4284,2295,18,-2,-64,116,112,-64,0
58,-66,4264,2281,25,-4,-64,116,112,-64,0
37,-64,4272,2277,21,2,-64,116,112,-64,0
38,-67,4280,2280,11,3,-64,116,112,-64,0
54,-77,4293,2289,18,8,-60,112,114,-60,1
29,-64,4265,2286,21,3,-60,112,114,-60,0
54,-68,4287,2289,19,2,-60,112,114,-60,0
61,-63,4297,2292,13,4,-60,112,114,-60,0
49,-58,4282,2292,18,4,-60,112,114,-60,0
59,-77,4302,2290,17,2,-59,119,109,-59,1
47,-58,4290,2291,13,2,-59,119,109,-59,0
51,-60,4293,2282,14,9,-59,119,109,-59,0
56,-72,4278,2294,16,4,-59,119,109,-59,0
49,-60,4262,2301,17,1,-66,126,106,-66,1
41,-62,4320,2277,15,1,-66,126,106,-66,1
44,-51,4307,2283,19,6,-66,126,106,-66,0
47,-65,4280,2291,21,2,-66,126,106,-66,0
48,-67,4289,2296,17,-3,-66,126,106,-66,0
68,-76,4270,2301,17,0,-66,126,106,-66,0
42,-75,4300,2292,16,-1,-64,116,116,-64,1
56,-63,4294,2275,20,0,-64,116,116,-64,0
47,-69,4301,2277,22,8,-64,116,116,-64,0
36,-73,4262,2295,21,10,-64,116,116,-64,0
45,-44,4277,2291,24,6,-64,116,116,-64,0
46,-58,4297,2292,19,7,-64,116,116,-64,0
65,-75,4287,2294,17,8,-64,116,116,-64,0
57,-60,4295,2286,18,4,-64,116,116,-64,0
49,-57,4265,2292,14,3,-64,116,116,-64,0
40,-63,4275,2293,17,2,-64,116,116,-64,0
63,-76,4295,2302,25,6,-64,123,116,-64,1
51,-72,4303,2282,23,10,-67,123,115,-67,1
41,-55,4276,2287,19,6,-67,123,115,-67,0
42,-64,4263,2298,16,4,-67,123,115,-67,0
59,-66,4294,2290,16,3,-67,123,115,-67,0
31,-70,4274,2281,26,7,-67,123,115,-67,0
53,-54,4287,2274,23,5,-62,126,112,-62,1
57,-64,4263,2290,19,-1,-62,126,112,-62,0
42,-72,4279,2296,15,5,-62,126,112,-62,0
49,-52,4283,2284,13,3,-62,126,112,-62,0
47,-65,4315,2293,19,3,-62,126,112,-62,0
53,-65,4276,2295,21,0,-55,117,113,-55,1
55,-64,4277,2282,20,5,-55,117,113,-55,0
40,-72,4275,2286,18,6,-55,117,113,-55,0
38,-65,4290,2290,16,-1,-55,117,113,-55,0
42,-58,4259,2298,20,4,-55,117,113,-55,0
40,-85,4263,2289,16,6,-60,118,108,-60,1
59,-62,4268,2285,15,3,-60,118,108,-60,0
57,-60,4298,2279,20,6,-60,118,108,-60,0
53,-73,4267,2284,23,6,-60,118,108,-60,0
39,-68,4292,2287,20,4,-60,118,108,-60,0
45,-66,4304,2284,20,6,-60,124,116,-60,1
55,-57,4244,2298,19,3,-60,124,116,-60,0
58,-76,4291,2290,17,6,-60,124,116,-60,0
41,-69,4260,2283,15,5,-60,124,116,-60,0
46,-60,4253,2292,16,8,-60,124,116,-60,0
61,-60,4290,2285,15,4,-63,113,119,-63,1
61,-65,4270,2289,15,-2,-63,113,119,-63,0
50,-53,4274,2277,15,-2,-63,113,119,-63,0
49,-71,4277,2295,21,-6,-63,113,119,-63,0
43,-65,4283,2306,12,-1,-63,113,119,-63,0
66,-67,4268,2294,16,9,-63,119,113,-63,1
41,-89,4278,2282,18,8,-63,119,113,-63,0
43,-58,4256,2295,17,8,-63,119,113,-63,0
60,-81,4269,2292,20,3,-63,119,113,-63,0
47,-69,4285,2296,22,4,-63,117,111,-63,1
39,-77,4274,2295,24,1,-67,117,111,-67,1
53,-54,4288,2287,20,3,-67,117,111,-67,0
53,-53,4300,2290,16,1,-67,117,111,-67,0
36,-56,4275,2297,14,0,-67,117,111,-67,0
57,-82,4311,2284,16,2,-67,117,111,-67,0
38,-74,4280,2289,16,2,-56,112,112,-56,1
53,-59,4313,2283,17,8,-56,112,112,-56,0
43,-68,4300,2281,18,5,-56,112,112,-56,0
58,-70,4292,2286,18,7,-56,112,112,-56,0
67,-67,4289,2287,16,11,-56,112,112,-56,0
48,-65,4289,2289,13,3,-60,120,118,-60,1
43,-67,4287,2292,17,2,-60,120,118,-60,0
55,-73,4294,2293,16,7,-60,120,118,-60,0
48,-63,4303,2285,14,10,-60,120,118,-60,0
55,-74,4255,2292,16,4,-60,120,118,-60,0
54,-74,4266,2283,16,5,-61,119,111,-61,1
66,-55,4261,2283,13,8,-61,119,111,-61,0
50,-65,4305,2292,17,11,-61,119,111,-61,0
43,-63,4278,2289,15,1,-61,119,111,-61,0
42,-63,4296,2285,18,4,-61,119,111,-61,0
60,-70,4282,2285,11,1,-60,116,110,-60,1
68,-72,4297,2288,17,2,-60,116,110,-60,0
48,-54,4275,2291,15,5,-60,116,110,-60,0
51,-63,4293,2289,14,1,-60,116,110,-60,0
45,-76,4294,2285,16,5,-60,116,110,-60,0
47,-69,4266,2285,19,5,-68,114,120,-68,1
48,-64,4279,2275,21,3,-68,114,120,-68,0
46,-56,4288,2299,18,0,-68,114,120,-68,0
40,-76,4298,2293,15,6,-68,114,120,-68,0
53,-79,4277,2273,18,9,-68,114,120,-68,0
61,-69,4302,2283,17,8,-63,119,117,-63,1
55,-66,4307,2292,21,7,-63,119,117,-63,0
46,-72,4292,2290,17,7,-63,119,117,-63,0
42,-84,4285,2289,19,6,-63,119,117,-63,0
47,-75,4294,2290,24,7,-63,117,117,-63,1
45,-77,4283,2286,21,0,-59,117,113,-59,1
45,-67,4276,2290,17,2,-59,117,113,-59,0
61,-66,4288,2289,18,10,-59,117,113,-59,0
41,-64,4259,2290,20,8,-59,117,113,-59,0
54,-57,4289,2296,21,-1,-59,117,113,-59,0
59,-63,4294,2284,21,-3,-65,117,115,-65,1
49,-77,4296,2291,18,7,-65,117,115,-65,0
48,-72,4271,2298,20,11,-65,117,115,-65,0
57,-49,4300,2283,20,12,-65,117,115,-65,0
50,-67,4292,2299,21,6,-65,117,115,-65,0
47,-74,4291,2287,19,4,-65,117,115,-65,0
36,-71,4287,2295,13,5,-65,117,115,-65,0
54,-72,4287,2295,17,4,-65,117,115,-65,0
56,-69,4261,2300,16,3,-65,117,115,-65,0
52,-66,4260,2294,16,2,-65,117,115,-65,0
54,-80,4287,2292,24,-2,-65,117,115,-65,0
56,-82,4292,2281,20,0,-63,121,121,-63,1
56,-70,4294,2295,19,3,-63,121,121,-63,0
38,-74,4262,2291,17,1,-63,121,121,-63,0
61,-60,4287,2285,17,1,-63,121,121,-63,0
60,-75,4282,2280,20,-1,-63,121,121,-63,0
48,-52,4282,2277,19,-3,-65,119,119,-65,1
37,-78,4307,2286,19,3,-65,119,119,-65,0
45,-66,4282,2298,21,8,-65,119,119,-65,0
53,-80,4288,2288,19,4,-65,119,119,-65,0
48,-71,4278,2292,21,3,-65,119,119,-65,0
47,-75,4287,2289,18,2,-62,112,112,-62,0
50,-61,4292,2299,18,7,-62,112,112,-62,0
46,-73,4282,2288,20,9,-62,112,112,-62,0
36,-54,4293,2282,15,-2,-62,112,112,-62,0
42,-70,4286,2286,15,2,-62,112,112,-62,0
61,-63,4268,2289,15,3,-61,117,119,-61,0
46,-56,4280,2294,18,2,-61,117,119,-61,0
47,-76,4270,2298,16,2,-61,117,119,-61,0
46,-74,4283,2289,20,2,-61,117,119,-61,0
66,-82,4296,2283,20,-2,-61,117,119,-61,0
60,-65,4282,2286,17,0,-63,115,119,-63,0
44,-60,4274,2281,20,3,-63,115,119,-63,0
48,-82,4299,2279,20,3,-63,115,119,-63,0
43,-90,4275,2279,18,-4,-63,115,119,-63,0
54,-62,4271,2287,18,5,-63,115,119,-63,0
32,-64,4261,2291,18,8,-63,123,111,-63,1
52,-62,4289,2291,21,10,-63,123,111,-63,0
52,-69,4297,2278,19,3,-63,123,111,-63,0
45,-59,4278,2285,15,4,-63,123,111,-63,0
54,-64,4315,2292,14,3,-63,123,111,-63,0
30,-78,4281,2294,15,2,-58,108,108,-58,1
55,-55,4295,2284,18,4,-58,108,108,-58,0
47,-73,4291,2280,19,1,-58,108,108,-58,0
46,-64,4310,2280,15,1,-58,108,108,-58,0
62,-63,4281,2293,17,-3,-58,108,108,-58,0
55,-61,4292,2302,24,0,-62,122,110,-62,1
45,-55,4296,2301,23,3,-62,122,110,-62,0
45,-64,4262,2300,17,5,-62,122,110,-62,0
53,-73,4256,2299,15,10,-62,122,110,-62,0
47,-62,4291,2297,21,4,-62,122,110,-62,0
41,-67,4311,2294,18,7,-65,121,119,-65,1
50,-57,4302,2290,11,9,-65,121,119,-65,0
43,-71,4288,2291,16,5,-65,121,119,-65,0
63,-75,4275,2286,19,2,-65,121,119,-65,0
56,-78,4299,2286,18,5,-65,121,119,-65,0
57,-66,4319,2297,21,8,-66,120,108,-66,1
51,-67,4286,2296,17,7,-66,120,108,-66,0
49,-66,4295,2302,15,6,-66,120,108,-66,0
52,-66,4266,2304,17,6,-66,120,108,-66,0
46,-65,4292,2297,19,2,-66,120,108,-66,0
45,-66,4272,2282,14,4,-70,114,112,-70,1
45,-56,4307,2271,18,8,-70,114,112,-70,0
53,-67,4287,2280,20,4,-70,114,112,-70,0
42,-68,4289,2292,20,13,-70,114,112,-70,0
60,-55,4307,2299,20,9,-70,114,112,-70,0
35,-57,4296,2292,14,1,-61,119,113,-61,1
42,-74,4252,2295,20,6,-61,119,113,-61,0
55,-75,4268,2303,22,8,-61,119,113,-61,0
48,-73,4283,2305,16,11,-61,119,113,-61,0
64,-70,4325,2299,20,16,-61,119,113,-61,0
43,-88,4284,2289,14,9,-59,115,109,-59,1
57,-70,4275,2298,19,10,-59,115,109,-59,0
55,-74,4249,2305,20,3,-59,115,109,-59,0
49,-85,4285,2300,15,0,-59,115,109,-59,0
55,-69,4257,2296,19,6,-59,117,109,-59,1
43,-70,4285,2294,27,7,-63,117,115,-63,1
61,-67,4302,2294,25,8,-63,117,115,-63,0
56,-81,4298,2301,15,5,-63,117,115,-63,0
43,-80,4255,2296,14,12,-63,117,115,-63,0
36,-66,4261,2293,16,7,-63,117,115,-63,0
47,-75,4293,2291,20,5,-58,118,114,-58,1
57,-75,4300,2286,22,6,-58,118,114,-58,0
40,-81,4281,2294,17,-6,-58,118,114,-58,0
48,-55,4294,2295,22,-1,-58,118,114,-58,0
63,-72,4287,2284,22,5,-58,118,114,-58,0
44,-72,4320,2288,17,4,-62,120,110,-62,1
59,-60,4287,2298,19,5,-62,120,110,-62,0
47,-64,4286,2296,18,4,-62,120,110,-62,0
64,-78,4270,2288,16,4,-62,120,110,-62,0
65,-56,4296,2296,20,5,-62,120,110,-62,0
49,-60,4291,2298,16,1,-62,120,110,-62,0
58,-56,4313,2294,22,5,-62,120,110,-62,0
52,-78,4289,2291,17,8,-62,120,110,-62,0
55,-69,4294,2279,14,8,-62,120,110,-62,0
53,-65,4296,2283,23,9,-62,120,110,-62,0
34,-68,4254,2295,20,6,-63,125,113,-63,1
58,-52,4257,2282,21,5,-63,125,113,-63,1
46,-59,4258,2281,26,5,-63,125,113,-63,0
41,-77,4317,2293,15,-2,-63,125,113,-63,0
50,-57,4289,2277,11,5,-63,125,113,-63,0
47,-72,4291,2293,20,6,-63,125,113,-63,0
49,-72,4307,2287,24,3,-64,118,114,-64,1
42,-70,4287,2294,22,9,-64,118,114,-64,0
58,-55,4293,2285,15,8,-64,118,114,-64,0
39,-67,4292,2301,19,5,-64,118,114,-64,0
55,-65,4265,2280,20,3,-64,118,114,-64,0
48,-75,4278,2286,15,8,-62,108,114,-62,1
46,-54,4281,2287,20,0,-62,108,114,-62,0
47,-69,4286,2281,24,7,-62,108,114,-62,0
37,-66,4287,2290,17,10,-62,108,114,-62,0
45,-70,4287,2292,18,12,-62,108,114,-62,0
33,-69,4285,2306,18,6,-56,132,108,-56,1
43,-71,4281,2301,16,3,-56,132,108,-56,0
51,-69,4286,2298,25,1,-56,132,108,-56,0
32,-65,4287,2286,27,5,-56,132,108,-56,0
46,-68,4308,2280,24,15,-56,132,108,-56,0
53,-62,4283,2296,15,8,-58,118,116,-58,1
51,-79,4301,2303,20,1,-58,118,116,-58,0
44,-66,4265,2297,14,2,-58,118,116,-58,0
74,-68,4274,2288,13,7,-58,118,116,-58,0
51,-77,4284,2289,17,3,-58,118,116,-58,0
36,-69,4291,2280,20,1,-68,120,116,-68,1
44,-82,4264,2279,15,2,-68,120,116,-68,0
51,-76,4287,2284,16,4,-68,120,116,-68,0
45,-59,4265,2286,20,2,-68,120,116,-68,0
40,-62,4285,2291,16,4,-68,120,116,-68,0
50,-74,4271,2282,19,1,-66,116,112,-66,1
47,-74,4289,2291,15,0,-66,116,112,-66,0
51,-66,4272,2284,15,2,-66,116,112,-66,0
45,-60,4270,2286,18,-3,-66,116,112,-66,0
48,-47,4271,2281,17,0,-66,116,112,-66,0
54,-61,4276,2279,17,2,-55,119,115,-55,1
54,-73,4286,2299,19,1,-55,119,115,-55,0
56,-81,4265,2292,20,2,-55,119,115,-55,0
64,-74,4251,2304,18,0,-55,119,115,-55,0
44,-72,4313,2295,18,1,-55,119,115,-55,0
61,-74,4276,2297,16,10,-65,115,121,-65,1
49,-65,4289,2294,21,7,-65,115,121,-65,0
52,-66,4284,2285,16,2,-65,115,121,-65,0
58,-70,4244,2296,16,3,-65,115,121,-65,0
43,-72,4283,2301,19,5,-65,115,121,-65,0
61,-69,4263,2301,17,0,-60,114,114,-60,1
51,-80,4282,2299,20,0,-60,114,114,-60,0
48,-70,4304,2280,24,1,-60,114,114,-60,0
50,-72,4260,2285,17,5,-60,114,114,-60,0
47,-63,4287,2287,17,2,-60,114,114,-60,0
55,-60,4291,2297,18,0,-71,113,113,-71,0
47,-90,4278,2289,18,1,-71,113,113,-71,0
40,-61,4288,2283,15,4,-71,113,113,-71,0
56,-74,4275,2297,18,3,-71,113,113,-71,0
42,-59,4301,2303,22,7,-71,113,113,-71,0
48,-41,4283,2308,20,4,-57,117,117,-57,1
42,-50,4292,2287,13,1,-57,117,117,-57,0
46,-57,4294,2300,19,2,-57,117,117,-57,0
41,-57,4283,2295,24,4,-57,117,117,-57,0
45,-94,4293,2295,24,8,-57,117,117,-57,0
47,-71,4291,2297,23,4,-62,116,114,-62,1
39,-73,4302,2277,18,1,-62,116,114,-62,0
47,-66,4287,2271,19,3,-62,116,114,-62,0
48,-48,4301,2298,21,6,-62,116,114,-62,0
48,-71,4258,2282,24,5,-62,109,117,-62,1
56,-66,4308,2278,19,6,-61,109,117,-61,1
51,-64,4273,2273,23,3,-61,109,117,-61,0
50,-75,4268,2288,17,-2,-61,109,117,-61,0
51,-54,4307,2283,13,-1,-61,109,117,-61,0
48,-56,4286,2280,16,4,-61,109,117,-61,0
36,-62,4295,2278,15,4,-66,126,110,-66,1
47,-54,4295,2295,19,5,-66,126,110,-66,0
36,-53,4271,2295,23,2,-66,126,110,-66,0
40,-63,4283,2292,20,6,-66,126,110,-66,0
39,-65,4295,2297,13,7,-66,125,113,-66,1
53,-66,4304,2285,19,10,-55,125,113,-55,1
33,-63,4271,2291,26,1,-55,125,113,-55,0
46,-70,4287,2294,19,3,-55,125,113,-55,0
56,-66,4279,2304,14,3,-55,125,113,-55,0
53,-66,4302,2297,19,3,-55,125,113,-55,0
51,-80,4286,2292,16,4,-55,125,113,-55,0
39,-70,4274,2298,19,6,-55,125,113,-55,0
51,-76,4275,2300,19,8,-55,125,113,-55,0
39,-78,4285,2291,21,5,-55,125,113,-55,0
43,-61,4304,2294,18,2,-55,125,113,-55,0
48,-66,4283,2292,15,6,-55,125,113,-55,0
46,-65,4266,2301,21,3,-66,124,120,-66,0
63,-72,4275,2292,18,2,-66,124,120,-66,0
41,-50,4278,2293,14,3,-66,124,120,-66,0
55,-64,4289,2286,18,3,-66,124,120,-66,0
59,-65,4281,2282,21,8,-66,124,120,-66,0
57,-59,4302,2292,27,7,-65,119,115,-65,1
37,-66,4301,2295,20,0,-65,119,115,-65,0
51,-51,4273,2303,17,2,-65,119,115,-65,0
44,-79,4272,2309,16,-1,-65,119,115,-65,0
67,-68,4304,2305,18,4,-65,119,115,-65,0
48,-80,4292,2298,23,10,-64,114,110,-64,1
57,-84,4263,2291,21,2,-64,114,110,-64,0
48,-64,4285,2299,17,7,-64,114,110,-64,0
54,-73,4283,2299,18,8,-64,114,110,-64,0
49,-59,4272,2304,26,0,-64,114,110,-64,0
57,-89,4263,2294,22,1,-63,123,119,-63,1
40,-66,4295,2307,19,2,-63,123,119,-63,0
56,-57,4295,2301,12,9,-63,123,119,-63,0
54,-48,4266,2292,22,3,-63,123,119,-63,0
47,-60,4281,2294,20,6,-63,123,119,-63,0
45,-62,4289,2298,16,8,-68,108,110,-68,1
47,-68,4273,2298,16,4,-68,108,110,-68,0
75,-73,4267,2295,19,4,-68,108,110,-68,0
42,-65,4285,2299,19,6,-68,108,110,-68,0
55,-65,4282,2295,16,3,-68,108,110,-68,0
43,-82,4305,2287,19,4,-62,114,108,-62,1
47,-55,4284,2294,17,4,-62,114,108,-62,0
56,-58,4263,2298,23,4,-62,114,108,-62,0
55,-68,4307,2306,19,4,-62,114,108,-62,0
34,-79,4300,2282,22,4,-62,114,108,-62,0
44,-68,4299,2274,20,9,-61,121,119,-61,1
56,-58,4307,2298,21,9,-61,121,119,-61,0
61,-52,4248,2298,21,9,-61,121,119,-61,0
58,-79,4283,2297,18,2,-61,121,119,-61,0
53,-68,4280,2298,16,1,-61,121,119,-61,0
69,-69,4303,2295,20,4,-68,126,106,-68,1
65,-81,4277,2294,19,1,-68,126,106,-68,0
32,-55,4286,2301,16,1,-68,126,106,-68,0
56,-79,4280,2304,18,2,-68,126,106,-68,0
51,-68,4283,2288,17,2,-67,117,113,-67,1
58,-52,4304,2286,17,4,-67,117,113,-67,1
42,-72,4287,2294,17,3,-67,117,113,-67,0
56,-78,4273,2284,18,5,-67,117,113,-67,0
54,-80,4273,2295,15,10,-67,117,113,-67,0
51,-78,4288,2308,16,5,-67,117,113,-67,0
48,-51,4300,2298,23,8,-61,121,111,-61,1
42,-65,4285,2289,24,7,-61,121,111,-61,0
53,-76,4301,2287,21,7,-61,121,111,-61,0
46,-79,4287,2300,18,3,-61,121,111,-61,0
42,-56,4295,2308,18,3,-61,121,111,-61,0
48,-68,4273,2289,19,3,-60,112,114,-60,1
64,-63,4289,2300,23,-2,-60,112,114,-60,0
40,-73,4282,2283,27,0,-60,112,114,-60,0
55,-73,4304,2280,20,4,-60,112,114,-60,0
45,-60,4258,2284,21,-1,-60,112,114,-60,0
50,-76,4273,2293,22,6,-65,125,109,-65,1
45,-51,4267,2293,18,10,-65,125,109,-65,0
58,-80,4281,2291,19,6,-65,125,109,-65,0
42,-58,4292,2290,18,8,-65,125,109,-65,0
42,-84,4300,2289,15,11,-65,125,109,-65,0
48,-73,4280,2285,13,4,-64,116,114,-64,1
46,-76,4286,2296,18,1,-64,116,114,-64,0
48,-78,4284,2289,19,0,-64,116,114,-64,0
51,-68,4303,2284,23,6,-64,116,114,-64,0
49,-81,4278,2283,23,-2,-64,116,114,-64,0
35,-53,4254,2286,15,-1,-64,110,114,-64,1
46,-62,4253,2287,14,2,-64,110,114,-64,0
55,-58,4260,2292,15,4,-64,110,114,-64,0
60,-48,4281,2281,16,7,-64,110,114,-64,0
50,-66,4296,2296,19,10,-64,110,114,-64,0
60,-73,4286,2289,22,4,-63,113,117,-63,1
56,-50,4282,2294,21,3,-63,113,117,-63,0
49,-72,4294,2290,16,4,-63,113,117,-63,0
57,-68,4317,2300,16,3,-63,113,117,-63,0
54,-62,4290,2300,18,2,-63,113,117,-63,0
58,-77,4288,2294,12,5,-61,115,109,-61,1
39,-70,4288,2299,17,2,-61,115,109,-61,0
48,-84,4290,2288,24,8,-61,115,109,-61,0
52,-67,4289,2289,23,2,-61,115,109,-61,0
57,-77,4285,2290,18,2,-61,115,109,-61,0
64,-56,4264,2294,19,5,-65,109,113,-65,0
59,-69,4299,2299,18,7,-65,109,113,-65,0
48,-72,4280,2286,21,8,-65,109,113,-65,0
43,-58,4276,2298,18,8,-65,109,113,-65,0
38,-75,4289,2307,16,3,-65,109,113,-65,0
54,-59,4286,2297,23,7,-65,109,113,-65,0
45,-75,4285,2276,21,6,-65,109,113,-65,0
46,-67,4304,2282,12,2,-65,109,113,-65,0
25,-54,4300,2287,10,2,-65,109,113,-65,0
48,-73,4284,2293,20,4,-65,109,113,-65,0
49,-65,4295,2296,18,1,-65,109,113,-65,0
47,-76,4302,2290,18,4,-63,113,109,-63,1
56,-68,4282,2296,20,3,-63,113,109,-63,0
